SAO LUIS EMBRACE-03 <275> 1 Min. Reported data

 DD MM YYYY  HH MM   D(Deg)  H(nT)   Z(nT)   I(Deg)   F(nT)

 02 10 2013  00 00  -21.0149 26011.6 -03489.1 -07.6397 26244.5
 02 10 2013  00 01  -21.0146 26011.4 -03489.0 -07.6396 26244.4
 02 10 2013  00 02  -21.0143 26011.5 -03489.0 -07.6397 26244.4
 02 10 2013  00 03  -21.0140 26011.6 -03489.1 -07.6399 26244.5
 02 10 2013  00 04  -21.0139 26011.5 -03489.1 -07.6399 26244.4
 02 10 2013  00 05  -21.0134 26011.4 -03489.2 -07.6400 26244.4
 02 10 2013  00 06  -21.0131 26011.2 -03489.1 -07.6399 26244.2
 02 10 2013  00 07  -21.0127 26010.9 -03489.0 -07.6398 26243.8
 02 10 2013  00 08  -21.0125 26010.6 -03488.9 -07.6397 26243.6
 02 10 2013  00 09  -21.0142 26010.8 -03489.0 -07.6399 26243.7
 02 10 2013  00 10  -21.0142 26010.8 -03489.1 -07.6401 26243.8
 02 10 2013  00 11  -21.0142 26010.9 -03489.3 -07.6404 26243.9
 02 10 2013  00 12  -21.0143 26011.0 -03489.4 -07.6407 26244.0
 02 10 2013  00 13  -21.0143 26011.0 -03489.5 -07.6408 26244.0
 02 10 2013  00 14  -21.0143 26011.0 -03489.6 -07.6410 26244.1
 02 10 2013  00 15  -21.0143 26011.1 -03489.6 -07.6411 26244.1
 02 10 2013  00 16  -21.0138 26011.2 -03489.7 -07.6413 26244.2
 02 10 2013  00 17  -21.0119 26011.1 -03489.7 -07.6412 26244.1
 02 10 2013  00 18  -21.0118 26011.3 -03489.8 -07.6414 26244.4
 02 10 2013  00 19  -21.0117 26011.5 -03489.9 -07.6417 26244.6
 02 10 2013  00 20  -21.0118 26011.7 -03490.1 -07.6419 26244.8
 02 10 2013  00 21  -21.0118 26011.9 -03490.2 -07.6421 26245.1
 02 10 2013  00 22  -21.0118 26011.9 -03490.2 -07.6422 26245.0
 02 10 2013  00 23  -21.0118 26011.9 -03490.2 -07.6421 26245.0
 02 10 2013  00 24  -21.0119 26012.0 -03490.3 -07.6422 26245.1
 02 10 2013  00 25  -21.0119 26012.1 -03490.3 -07.6423 26245.3
 02 10 2013  00 26  -21.0117 26012.3 -03490.4 -07.6424 26245.4
 02 10 2013  00 27  -21.0115 26012.6 -03490.5 -07.6426 26245.7
 02 10 2013  00 28  -21.0114 26012.8 -03490.6 -07.6427 26245.9
 02 10 2013  00 29  -21.0113 26013.0 -03490.7 -07.6429 26246.2
 02 10 2013  00 30  -21.0112 26013.3 -03490.8 -07.6431 26246.5
 02 10 2013  00 31  -21.0111 26013.6 -03491.0 -07.6433 26246.8
 02 10 2013  00 32  -21.0111 26014.0 -03491.1 -07.6436 26247.2
 02 10 2013  00 33  -21.0110 26014.2 -03491.3 -07.6437 26247.5
 02 10 2013  00 34  -21.0109 26014.4 -03491.3 -07.6438 26247.6
 02 10 2013  00 35  -21.0109 26014.6 -03491.4 -07.6438 26247.8
 02 10 2013  00 36  -21.0109 26014.8 -03491.4 -07.6439 26248.0
 02 10 2013  00 37  -21.0108 26015.0 -03491.4 -07.6439 26248.2
 02 10 2013  00 38  -21.0108 26015.2 -03491.5 -07.6439 26248.4
 02 10 2013  00 39  -21.0106 26015.3 -03491.5 -07.6439 26248.5
 02 10 2013  00 40  -21.0102 26015.4 -03491.5 -07.6438 26248.6
 02 10 2013  00 41  -21.0100 26015.5 -03491.5 -07.6439 26248.7
 02 10 2013  00 42  -21.0098 26015.5 -03491.5 -07.6438 26248.7
 02 10 2013  00 43  -21.0097 26015.4 -03491.4 -07.6437 26248.6
 02 10 2013  00 44  -21.0097 26015.2 -03491.3 -07.6435 26248.5
 02 10 2013  00 45  -21.0096 26015.1 -03491.2 -07.6434 26248.3
 02 10 2013  00 46  -21.0095 26014.9 -03491.1 -07.6432 26248.1
 02 10 2013  00 47  -21.0094 26014.8 -03491.0 -07.6431 26248.0
 02 10 2013  00 48  -21.0095 26014.7 -03491.0 -07.6430 26247.9
 02 10 2013  00 49  -21.0095 26014.7 -03491.0 -07.6431 26247.9
 02 10 2013  00 50  -21.0095 26014.6 -03491.0 -07.6431 26247.8
 02 10 2013  00 51  -21.0095 26014.5 -03491.0 -07.6431 26247.7
 02 10 2013  00 52  -21.0095 26014.4 -03491.0 -07.6431 26247.6
 02 10 2013  00 53  -21.0095 26014.2 -03490.9 -07.6430 26247.4
 02 10 2013  00 54  -21.0094 26014.1 -03490.8 -07.6428 26247.2
 02 10 2013  00 55  -21.0092 26013.7 -03490.7 -07.6427 26246.9
 02 10 2013  00 56  -21.0089 26013.5 -03490.6 -07.6424 26246.6
 02 10 2013  00 57  -21.0085 26013.2 -03490.5 -07.6423 26246.3
 02 10 2013  00 58  -21.0084 26013.3 -03490.5 -07.6424 26246.5
 02 10 2013  00 59  -21.0084 26013.6 -03490.8 -07.6428 26246.8
 02 10 2013  01 00  -21.0085 26013.8 -03490.9 -07.6432 26247.0
 02 10 2013  01 01  -21.0086 26014.0 -03491.1 -07.6434 26247.2
 02 10 2013  01 02  -21.0085 26014.0 -03491.1 -07.6435 26247.2
 02 10 2013  01 03  -21.0084 26014.1 -03491.2 -07.6436 26247.3
 02 10 2013  01 04  -21.0084 26014.0 -03491.2 -07.6436 26247.2
 02 10 2013  01 05  -21.0085 26014.0 -03491.2 -07.6436 26247.3
 02 10 2013  01 06  -21.0086 26013.8 -03491.1 -07.6435 26247.0
 02 10 2013  01 07  -21.0088 26013.7 -03491.1 -07.6435 26246.9
 02 10 2013  01 08  -21.0090 26013.6 -03491.0 -07.6434 26246.8
 02 10 2013  01 09  -21.0093 26013.4 -03491.0 -07.6433 26246.6
 02 10 2013  01 10  -21.0094 26013.2 -03490.8 -07.6431 26246.4
 02 10 2013  01 11  -21.0095 26013.2 -03490.8 -07.6431 26246.4
 02 10 2013  01 12  -21.0098 26013.3 -03490.9 -07.6433 26246.5
 02 10 2013  01 13  -21.0101 26013.3 -03491.0 -07.6434 26246.5
 02 10 2013  01 14  -21.0104 26013.3 -03491.0 -07.6435 26246.5
 02 10 2013  01 15  -21.0104 26013.4 -03491.0 -07.6434 26246.6
 02 10 2013  01 16  -21.0105 26013.8 -03491.1 -07.6436 26247.0
 02 10 2013  01 17  -21.0103 26014.9 -03491.7 -07.6444 26248.1
 02 10 2013  01 18  -21.0103 26014.9 -03491.7 -07.6445 26248.1
 02 10 2013  01 19  -21.0102 26015.3 -03491.9 -07.6448 26248.6
 02 10 2013  01 20  -21.0100 26015.9 -03492.2 -07.6452 26249.3
 02 10 2013  01 21  -21.0102 26015.6 -03492.0 -07.6448 26248.9
 02 10 2013  01 22  -21.0098 26016.5 -03492.3 -07.6453 26249.8
 02 10 2013  01 23  -21.0097 26016.4 -03492.2 -07.6452 26249.7
 02 10 2013  01 24  -21.0095 26017.1 -03492.5 -07.6456 26250.5
 02 10 2013  01 25  -21.0100 26017.2 -03492.5 -07.6456 26250.5
 02 10 2013  01 26  -21.0102 26017.8 -03492.8 -07.6460 26251.2
 02 10 2013  01 27  -21.0105 26017.9 -03492.8 -07.6459 26251.3
 02 10 2013  01 28  -21.0110 26018.1 -03492.8 -07.6459 26251.5
 02 10 2013  01 29  -21.0114 26017.7 -03492.6 -07.6455 26251.1
 02 10 2013  01 30  -21.0116 26017.2 -03492.2 -07.6449 26250.5
 02 10 2013  01 31  -21.0116 26016.5 -03491.7 -07.6441 26249.7
 02 10 2013  01 32  -21.0115 26016.0 -03491.4 -07.6436 26249.2
 02 10 2013  01 33  -21.0114 26015.9 -03491.3 -07.6434 26249.2
 02 10 2013  01 34  -21.0112 26016.0 -03491.4 -07.6434 26249.2
 02 10 2013  01 35  -21.0113 26016.2 -03491.5 -07.6437 26249.5
 02 10 2013  01 36  -21.0116 26016.2 -03491.5 -07.6437 26249.4
 02 10 2013  01 37  -21.0119 26016.2 -03491.5 -07.6438 26249.5
 02 10 2013  01 38  -21.0120 26016.2 -03491.5 -07.6437 26249.5
 02 10 2013  01 39  -21.0120 26016.4 -03491.6 -07.6439 26249.7
 02 10 2013  01 40  -21.0120 26016.1 -03491.5 -07.6436 26249.4
 02 10 2013  01 41  -21.0119 26016.2 -03491.5 -07.6436 26249.4
 02 10 2013  01 42  -21.0117 26016.1 -03491.4 -07.6435 26249.4
 02 10 2013  01 43  -21.0113 26016.2 -03491.4 -07.6435 26249.5
 02 10 2013  01 44  -21.0110 26016.8 -03491.7 -07.6439 26250.0
 02 10 2013  01 45  -21.0109 26017.0 -03491.8 -07.6442 26250.3
 02 10 2013  01 46  -21.0108 26016.8 -03491.8 -07.6441 26250.1
 02 10 2013  01 47  -21.0106 26016.5 -03491.5 -07.6437 26249.7
 02 10 2013  01 48  -21.0101 26016.6 -03491.6 -07.6438 26249.9
 02 10 2013  01 49  -21.0098 26016.4 -03491.5 -07.6435 26249.7
 02 10 2013  01 50  -21.0091 26016.8 -03491.6 -07.6438 26250.0
 02 10 2013  01 51  -21.0087 26016.9 -03491.7 -07.6440 26250.2
 02 10 2013  01 52  -21.0090 26016.9 -03491.7 -07.6440 26250.2
 02 10 2013  01 53  -21.0098 26017.0 -03491.8 -07.6442 26250.3
 02 10 2013  01 54  -21.0100 26017.2 -03491.9 -07.6443 26250.5
 02 10 2013  01 55  -21.0092 26017.5 -03492.0 -07.6444 26250.8
 02 10 2013  01 56  -21.0087 26018.2 -03492.2 -07.6447 26251.6
 02 10 2013  01 57  -21.0054 26024.7 -03495.0 -07.6487 26258.4
 02 10 2013  01 58  -20.9930 26040.8 -03502.2 -07.6597 26275.3
 02 10 2013  01 59  -20.9863 26056.8 -03510.5 -07.6730 26292.2
 02 10 2013  02 00  -20.9917 26061.5 -03513.4 -07.6779 26297.2
 02 10 2013  02 01  -20.9970 26061.1 -03513.2 -07.6775 26296.8
 02 10 2013  02 02  -20.9982 26055.1 -03508.8 -07.6698 26290.3
 02 10 2013  02 03  -20.9958 26051.8 -03505.3 -07.6632 26286.5
 02 10 2013  02 04  -20.9917 26055.0 -03505.4 -07.6624 26289.7
 02 10 2013  02 05  -20.9900 26060.6 -03507.2 -07.6647 26295.6
 02 10 2013  02 06  -20.9913 26064.2 -03509.3 -07.6681 26299.4
 02 10 2013  02 07  -20.9916 26065.3 -03509.6 -07.6685 26300.5
 02 10 2013  02 08  -20.9909 26062.2 -03507.3 -07.6645 26297.1
 02 10 2013  02 09  -20.9901 26059.7 -03505.0 -07.6603 26294.4
 02 10 2013  02 10  -20.9912 26059.8 -03504.4 -07.6588 26294.3
 02 10 2013  02 11  -20.9928 26061.2 -03504.9 -07.6596 26295.8
 02 10 2013  02 12  -20.9920 26060.3 -03504.1 -07.6581 26294.8
 02 10 2013  02 13  -20.9915 26059.3 -03503.3 -07.6566 26293.8
 02 10 2013  02 14  -20.9920 26060.0 -03503.2 -07.6563 26294.4
 02 10 2013  02 15  -20.9923 26058.1 -03502.4 -07.6550 26292.5
 02 10 2013  02 16  -20.9917 26058.2 -03502.0 -07.6541 26292.5
 02 10 2013  02 17  -20.9924 26059.6 -03502.6 -07.6550 26293.9
 02 10 2013  02 18  -20.9924 26058.9 -03502.3 -07.6546 26293.2
 02 10 2013  02 19  -20.9924 26058.0 -03501.6 -07.6533 26292.2
 02 10 2013  02 20  -20.9936 26058.4 -03501.6 -07.6533 26292.6
 02 10 2013  02 21  -20.9949 26057.8 -03501.3 -07.6528 26292.0
 02 10 2013  02 22  -20.9948 26057.5 -03500.9 -07.6520 26291.7
 02 10 2013  02 23  -20.9942 26058.0 -03501.0 -07.6521 26292.2
 02 10 2013  02 24  -20.9932 26058.7 -03501.2 -07.6522 26292.9
 02 10 2013  02 25  -20.9930 26058.7 -03501.1 -07.6521 26292.9
 02 10 2013  02 26  -20.9930 26059.1 -03501.2 -07.6522 26293.2
 02 10 2013  02 27  -20.9929 26058.4 -03500.8 -07.6516 26292.6
 02 10 2013  02 28  -20.9922 26057.6 -03500.2 -07.6505 26291.7
 02 10 2013  02 29  -20.9914 26057.0 -03499.7 -07.6496 26291.0
 02 10 2013  02 30  -20.9902 26057.4 -03499.8 -07.6496 26291.4
 02 10 2013  02 31  -20.9887 26057.9 -03500.0 -07.6499 26291.9
 02 10 2013  02 32  -20.9873 26058.3 -03500.1 -07.6501 26292.3
 02 10 2013  02 33  -20.9868 26058.2 -03500.1 -07.6502 26292.2
 02 10 2013  02 34  -20.9861 26057.5 -03499.8 -07.6496 26291.5
 02 10 2013  02 35  -20.9852 26058.0 -03499.9 -07.6498 26292.0
 02 10 2013  02 36  -20.9847 26058.3 -03500.1 -07.6501 26292.3
 02 10 2013  02 37  -20.9845 26057.9 -03500.0 -07.6499 26291.9
 02 10 2013  02 38  -20.9853 26056.8 -03499.4 -07.6491 26290.8
 02 10 2013  02 39  -20.9854 26056.5 -03499.2 -07.6485 26290.4
 02 10 2013  02 40  -20.9858 26056.1 -03499.0 -07.6483 26290.0
 02 10 2013  02 41  -20.9850 26056.3 -03499.0 -07.6483 26290.2
 02 10 2013  02 42  -20.9847 26055.5 -03498.6 -07.6476 26289.3
 02 10 2013  02 43  -20.9835 26055.6 -03498.5 -07.6475 26289.4
 02 10 2013  02 44  -20.9824 26056.0 -03498.8 -07.6479 26289.8
 02 10 2013  02 45  -20.9820 26055.3 -03498.6 -07.6476 26289.1
 02 10 2013  02 46  -20.9819 26055.5 -03498.7 -07.6478 26289.4
 02 10 2013  02 47  -20.9834 26055.5 -03498.9 -07.6483 26289.4
 02 10 2013  02 48  -20.9843 26056.1 -03499.2 -07.6487 26290.0
 02 10 2013  02 49  -20.9846 26057.0 -03499.7 -07.6496 26291.0
 02 10 2013  02 50  -20.9854 26059.0 -03500.8 -07.6513 26293.1
 02 10 2013  02 51  -20.9863 26058.2 -03500.5 -07.6509 26292.2
 02 10 2013  02 52  -20.9885 26058.0 -03500.4 -07.6508 26292.0
 02 10 2013  02 53  -20.9901 26056.3 -03499.4 -07.6492 26290.2
 02 10 2013  02 54  -20.9919 26055.0 -03498.7 -07.6480 26288.9
 02 10 2013  02 55  -20.9928 26054.0 -03498.0 -07.6467 26287.7
 02 10 2013  02 56  -20.9926 26053.4 -03497.7 -07.6463 26287.2
 02 10 2013  02 57  -20.9925 26053.3 -03497.6 -07.6460 26287.0
 02 10 2013  02 58  -20.9928 26054.1 -03498.0 -07.6467 26287.9
 02 10 2013  02 59  -20.9936 26054.4 -03498.3 -07.6474 26288.2
 02 10 2013  03 00  -20.9958 26053.9 -03498.3 -07.6473 26287.7
 02 10 2013  03 01  -20.9980 26052.4 -03497.6 -07.6463 26286.1
 02 10 2013  03 02  -20.9992 26051.8 -03497.2 -07.6457 26285.5
 02 10 2013  03 03  -21.0019 26050.6 -03496.6 -07.6448 26284.2
 02 10 2013  03 04  -21.0021 26049.5 -03496.0 -07.6437 26283.0
 02 10 2013  03 05  -21.0024 26048.0 -03495.2 -07.6425 26281.5
 02 10 2013  03 06  -21.0018 26046.7 -03494.5 -07.6413 26280.0
 02 10 2013  03 07  -21.0009 26045.6 -03494.0 -07.6405 26279.0
 02 10 2013  03 08  -21.0008 26043.9 -03493.2 -07.6394 26277.1
 02 10 2013  03 09  -21.0003 26041.7 -03492.2 -07.6379 26274.8
 02 10 2013  03 10  -20.9994 26039.8 -03491.3 -07.6365 26272.8
 02 10 2013  03 11  -20.9982 26038.5 -03490.8 -07.6357 26271.5
 02 10 2013  03 12  -20.9975 26037.7 -03490.7 -07.6357 26270.6
 02 10 2013  03 13  -20.9975 26037.0 -03490.6 -07.6358 26270.0
 02 10 2013  03 14  -20.9970 26036.0 -03490.4 -07.6355 26268.9
 02 10 2013  03 15  -20.9964 26035.6 -03490.3 -07.6355 26268.5
 02 10 2013  03 16  -20.9968 26035.0 -03490.3 -07.6355 26267.9
 02 10 2013  03 17  -20.9976 26034.2 -03490.1 -07.6355 26267.1
 02 10 2013  03 18  -20.9992 26033.2 -03490.0 -07.6354 26266.1
 02 10 2013  03 19  -21.0000 26032.6 -03489.7 -07.6351 26265.5
 02 10 2013  03 20  -21.0012 26031.5 -03489.4 -07.6346 26264.4
 02 10 2013  03 21  -21.0020 26030.3 -03488.9 -07.6339 26263.1
 02 10 2013  03 22  -21.0021 26029.4 -03488.4 -07.6331 26262.1
 02 10 2013  03 23  -21.0025 26028.6 -03488.0 -07.6326 26261.3
 02 10 2013  03 24  -21.0034 26028.0 -03487.8 -07.6323 26260.6
 02 10 2013  03 25  -21.0042 26027.0 -03487.5 -07.6318 26259.6
 02 10 2013  03 26  -21.0044 26025.5 -03486.8 -07.6308 26258.1
 02 10 2013  03 27  -21.0035 26024.6 -03486.4 -07.6303 26257.1
 02 10 2013  03 28  -21.0035 26023.0 -03485.8 -07.6294 26255.5
 02 10 2013  03 29  -21.0039 26021.2 -03485.1 -07.6284 26253.6
 02 10 2013  03 30  -21.0050 26020.3 -03484.8 -07.6279 26252.6
 02 10 2013  03 31  -21.0067 26019.6 -03484.7 -07.6280 26251.9
 02 10 2013  03 32  -21.0079 26018.7 -03484.6 -07.6279 26251.0
 02 10 2013  03 33  -21.0098 26017.2 -03484.0 -07.6273 26249.4
 02 10 2013  03 34  -21.0115 26015.6 -03483.3 -07.6262 26247.8
 02 10 2013  03 35  -21.0124 26015.4 -03483.4 -07.6263 26247.6
 02 10 2013  03 36  -21.0140 26014.1 -03483.0 -07.6259 26246.2
 02 10 2013  03 37  -21.0146 26012.4 -03482.3 -07.6248 26244.4
 02 10 2013  03 38  -21.0163 26010.6 -03481.6 -07.6239 26242.6
 02 10 2013  03 39  -21.0181 26009.2 -03481.1 -07.6231 26241.1
 02 10 2013  03 40  -21.0196 26008.1 -03480.7 -07.6227 26240.0
 02 10 2013  03 41  -21.0208 26007.4 -03480.6 -07.6226 26239.3
 02 10 2013  03 42  -21.0212 26007.7 -03480.9 -07.6233 26239.6
 02 10 2013  03 43  -21.0212 26008.2 -03481.5 -07.6244 26240.2
 02 10 2013  03 44  -21.0219 26008.0 -03481.8 -07.6250 26240.0
 02 10 2013  03 45  -21.0233 26007.5 -03481.8 -07.6252 26239.6
 02 10 2013  03 46  -21.0246 26006.1 -03481.3 -07.6246 26238.1
 02 10 2013  03 47  -21.0251 26004.9 -03480.8 -07.6239 26236.9
 02 10 2013  03 48  -21.0243 26004.6 -03480.7 -07.6237 26236.5
 02 10 2013  03 49  -21.0235 26004.6 -03480.9 -07.6240 26236.5
 02 10 2013  03 50  -21.0233 26003.7 -03480.8 -07.6240 26235.7
 02 10 2013  03 51  -21.0227 26002.6 -03480.4 -07.6235 26234.5
 02 10 2013  03 52  -21.0218 26002.3 -03480.4 -07.6237 26234.2
 02 10 2013  03 53  -21.0212 26002.7 -03480.9 -07.6246 26234.6
 02 10 2013  03 54  -21.0201 26002.7 -03481.2 -07.6253 26234.7
 02 10 2013  03 55  -21.0185 26002.8 -03481.5 -07.6259 26234.8
 02 10 2013  03 56  -21.0170 26002.9 -03481.8 -07.6266 26235.0
 02 10 2013  03 57  -21.0155 26003.5 -03482.4 -07.6276 26235.7
 02 10 2013  03 58  -21.0140 26004.2 -03483.0 -07.6288 26236.4
 02 10 2013  03 59  -21.0125 26004.8 -03483.7 -07.6300 26237.1
 02 10 2013  04 00  -21.0125 26003.0 -03483.2 -07.6296 26235.2
 02 10 2013  04 01  -21.0130 26001.5 -03482.6 -07.6287 26233.6
 02 10 2013  04 02  -21.0136 26000.3 -03482.2 -07.6281 26232.4
 02 10 2013  04 03  -21.0151 25999.6 -03482.1 -07.6282 26231.8
 02 10 2013  04 04  -21.0157 25999.0 -03482.1 -07.6283 26231.1
 02 10 2013  04 05  -21.0159 25998.6 -03482.2 -07.6287 26230.8
 02 10 2013  04 06  -21.0160 25997.7 -03482.1 -07.6286 26229.9
 02 10 2013  04 07  -21.0173 25996.8 -03481.9 -07.6285 26228.9
 02 10 2013  04 08  -21.0168 25996.9 -03482.1 -07.6290 26229.1
 02 10 2013  04 09  -21.0156 25996.3 -03482.1 -07.6291 26228.5
 02 10 2013  04 10  -21.0154 25995.1 -03481.8 -07.6289 26227.2
 02 10 2013  04 11  -21.0158 25993.4 -03481.3 -07.6282 26225.4
 02 10 2013  04 12  -21.0167 25992.4 -03481.2 -07.6283 26224.5
 02 10 2013  04 13  -21.0183 25992.2 -03481.4 -07.6289 26224.3
 02 10 2013  04 14  -21.0200 25991.8 -03481.7 -07.6295 26224.0
 02 10 2013  04 15  -21.0225 25991.3 -03481.8 -07.6298 26223.5
 02 10 2013  04 16  -21.0253 25990.6 -03481.7 -07.6299 26222.8
 02 10 2013  04 17  -21.0268 25990.7 -03481.8 -07.6302 26222.8
 02 10 2013  04 18  -21.0265 25992.2 -03482.6 -07.6313 26224.4
 02 10 2013  04 19  -21.0273 25992.6 -03483.1 -07.6323 26224.9
 02 10 2013  04 20  -21.0264 25996.2 -03484.4 -07.6342 26228.7
 02 10 2013  04 21  -21.0220 26005.0 -03489.0 -07.6416 26238.0
 02 10 2013  04 22  -21.0223 26008.3 -03491.5 -07.6461 26241.6
 02 10 2013  04 23  -21.0266 26005.2 -03490.4 -07.6445 26238.4
 02 10 2013  04 24  -21.0323 25998.3 -03486.7 -07.6386 26231.0
 02 10 2013  04 25  -21.0345 25995.6 -03484.4 -07.6344 26228.1
 02 10 2013  04 26  -21.0365 25993.4 -03483.2 -07.6322 26225.8
 02 10 2013  04 27  -21.0427 25989.3 -03481.4 -07.6296 26221.5
 02 10 2013  04 28  -21.0476 25983.1 -03478.1 -07.6243 26214.9
 02 10 2013  04 29  -21.0473 25981.6 -03476.8 -07.6219 26213.2
 02 10 2013  04 30  -21.0453 25983.8 -03477.9 -07.6235 26215.6
 02 10 2013  04 31  -21.0452 25987.8 -03480.3 -07.6278 26219.8
 02 10 2013  04 32  -21.0482 25990.1 -03482.3 -07.6313 26222.4
 02 10 2013  04 33  -21.0501 25991.1 -03483.1 -07.6328 26223.5
 02 10 2013  04 34  -21.0514 25992.2 -03483.6 -07.6335 26224.6
 02 10 2013  04 35  -21.0445 26005.0 -03488.7 -07.6409 26237.9
 02 10 2013  04 36  -21.0386 26025.6 -03499.6 -07.6584 26259.8
 02 10 2013  04 37  -21.0406 26033.6 -03505.0 -07.6679 26268.5
 02 10 2013  04 38  -21.0403 26031.4 -03503.7 -07.6657 26266.2
 02 10 2013  04 39  -21.0384 26023.3 -03498.2 -07.6561 26257.4
 02 10 2013  04 40  -21.0358 26012.1 -03491.1 -07.6441 26245.4
 02 10 2013  04 41  -21.0323 26002.4 -03485.0 -07.6336 26234.9
 02 10 2013  04 42  -21.0290 26001.3 -03483.4 -07.6304 26233.6
 02 10 2013  04 43  -21.0254 26001.8 -03484.5 -07.6326 26234.3
 02 10 2013  04 44  -21.0224 25997.0 -03482.7 -07.6303 26229.2
 02 10 2013  04 45  -21.0179 25992.8 -03481.0 -07.6277 26224.9
 02 10 2013  04 46  -21.0179 25987.7 -03479.2 -07.6254 26219.6
 02 10 2013  04 47  -21.0193 25983.9 -03478.0 -07.6237 26215.6
 02 10 2013  04 48  -21.0129 25984.9 -03478.7 -07.6252 26216.7
 02 10 2013  04 49  -21.0042 25985.8 -03480.0 -07.6276 26217.7
 02 10 2013  04 50  -21.0087 25983.3 -03480.0 -07.6284 26215.3
 02 10 2013  04 51  -21.0152 25983.0 -03481.2 -07.6310 26215.1
 02 10 2013  04 52  -21.0128 25983.1 -03481.8 -07.6323 26215.3
 02 10 2013  04 53  -21.0082 25983.3 -03482.2 -07.6332 26215.6
 02 10 2013  04 54  -21.0030 25984.6 -03483.1 -07.6346 26217.0
 02 10 2013  04 55  -21.0001 25986.0 -03484.5 -07.6372 26218.6
 02 10 2013  04 56  -20.9981 25986.5 -03485.5 -07.6392 26219.2
 02 10 2013  04 57  -20.9957 25986.1 -03485.9 -07.6404 26218.9
 02 10 2013  04 58  -20.9944 25985.8 -03486.4 -07.6414 26218.7
 02 10 2013  04 59  -20.9932 25986.7 -03487.2 -07.6429 26219.6
 02 10 2013  05 00  -20.9918 25988.2 -03488.6 -07.6455 26221.3
 02 10 2013  05 01  -20.9893 25990.7 -03490.4 -07.6486 26224.0
 02 10 2013  05 02  -20.9849 25994.6 -03492.7 -07.6525 26228.2
 02 10 2013  05 03  -20.9844 25995.7 -03494.0 -07.6550 26229.4
 02 10 2013  05 04  -20.9849 25995.9 -03494.8 -07.6567 26229.8
 02 10 2013  05 05  -20.9856 25994.3 -03494.3 -07.6561 26228.1
 02 10 2013  05 06  -20.9845 25995.0 -03494.7 -07.6567 26228.8
 02 10 2013  05 07  -20.9828 25995.8 -03495.2 -07.6576 26229.7
 02 10 2013  05 08  -20.9677 26010.5 -03502.3 -07.6686 26245.3
 02 10 2013  05 09  -20.9619 26014.6 -03505.7 -07.6748 26249.8
 02 10 2013  05 10  -20.9645 26016.4 -03507.9 -07.6790 26251.8
 02 10 2013  05 11  -20.9679 26018.3 -03509.1 -07.6812 26253.9
 02 10 2013  05 12  -20.9683 26020.3 -03510.0 -07.6826 26256.0
 02 10 2013  05 13  -20.9720 26021.2 -03510.4 -07.6831 26256.9
 02 10 2013  05 14  -20.9774 26020.5 -03510.1 -07.6826 26256.2
 02 10 2013  05 15  -20.9787 26022.7 -03510.3 -07.6825 26258.4
 02 10 2013  05 16  -20.9829 26024.0 -03510.4 -07.6822 26259.7
 02 10 2013  05 17  -20.9839 26025.9 -03510.2 -07.6814 26261.6
 02 10 2013  05 18  -20.9853 26023.6 -03508.3 -07.6778 26259.0
 02 10 2013  05 19  -20.9855 26022.5 -03506.6 -07.6745 26257.7
 02 10 2013  05 20  -20.9856 26022.0 -03505.5 -07.6723 26257.1
 02 10 2013  05 21  -20.9863 26021.1 -03504.5 -07.6703 26256.0
 02 10 2013  05 22  -20.9856 26022.0 -03504.1 -07.6692 26256.9
 02 10 2013  05 23  -20.9846 26029.8 -03507.5 -07.6744 26265.0
 02 10 2013  05 24  -20.9831 26032.3 -03508.6 -07.6760 26267.7
 02 10 2013  05 25  -20.9822 26034.9 -03509.6 -07.6774 26270.4
 02 10 2013  05 26  -20.9820 26035.6 -03509.4 -07.6767 26271.0
 02 10 2013  05 27  -20.9845 26034.2 -03508.1 -07.6744 26269.5
 02 10 2013  05 28  -20.9887 26031.2 -03506.0 -07.6706 26266.2
 02 10 2013  05 29  -20.9924 26029.5 -03504.3 -07.6675 26264.4
 02 10 2013  05 30  -20.9943 26029.7 -03503.7 -07.6662 26264.4
 02 10 2013  05 31  -20.9956 26027.5 -03501.8 -07.6628 26262.0
 02 10 2013  05 32  -20.9964 26028.3 -03501.6 -07.6620 26262.7
 02 10 2013  05 33  -20.9967 26027.9 -03501.1 -07.6610 26262.3
 02 10 2013  05 34  -20.9970 26026.9 -03500.1 -07.6593 26261.2
 02 10 2013  05 35  -20.9979 26025.6 -03499.2 -07.6576 26259.7
 02 10 2013  05 36  -20.9983 26025.4 -03498.7 -07.6565 26259.6
 02 10 2013  05 37  -20.9973 26025.6 -03498.4 -07.6559 26259.6
 02 10 2013  05 38  -20.9980 26026.3 -03498.4 -07.6556 26260.4
 02 10 2013  05 39  -20.9988 26026.8 -03498.5 -07.6557 26260.9
 02 10 2013  05 40  -21.0042 26025.7 -03498.1 -07.6553 26259.8
 02 10 2013  05 41  -21.0114 26021.6 -03496.1 -07.6522 26255.4
 02 10 2013  05 42  -21.0155 26017.4 -03493.3 -07.6471 26250.9
 02 10 2013  05 43  -21.0155 26017.9 -03492.8 -07.6459 26251.3
 02 10 2013  05 44  -21.0157 26016.4 -03491.8 -07.6442 26249.7
 02 10 2013  05 45  -21.0141 26015.3 -03490.9 -07.6426 26248.5
 02 10 2013  05 46  -21.0110 26016.8 -03491.2 -07.6429 26250.0
 02 10 2013  05 47  -21.0096 26018.3 -03492.0 -07.6442 26251.6
 02 10 2013  05 48  -21.0115 26015.9 -03491.3 -07.6433 26249.1
 02 10 2013  05 49  -21.0146 26012.2 -03489.5 -07.6406 26245.2
 02 10 2013  05 50  -21.0165 26010.3 -03488.5 -07.6388 26243.2
 02 10 2013  05 51  -21.0162 26010.6 -03488.5 -07.6388 26243.5
 02 10 2013  05 52  -21.0157 26010.6 -03488.7 -07.6391 26243.5
 02 10 2013  05 53  -21.0148 26009.8 -03488.3 -07.6386 26242.7
 02 10 2013  05 54  -21.0131 26009.4 -03488.2 -07.6384 26242.2
 02 10 2013  05 55  -21.0127 26008.1 -03487.7 -07.6378 26240.9
 02 10 2013  05 56  -21.0129 26006.7 -03487.1 -07.6370 26239.5
 02 10 2013  05 57  -21.0108 26006.9 -03487.4 -07.6374 26239.6
 02 10 2013  05 58  -21.0116 26003.3 -03486.1 -07.6358 26236.0
 02 10 2013  05 59  -21.0133 25998.3 -03483.7 -07.6320 26230.7
 02 10 2013  06 00  -21.0107 25997.6 -03483.3 -07.6313 26229.9
 02 10 2013  06 01  -21.0099 25998.0 -03484.0 -07.6327 26230.4
 02 10 2013  06 02  -21.0098 25997.7 -03484.4 -07.6337 26230.2
 02 10 2013  06 03  -21.0089 25996.8 -03484.4 -07.6340 26229.3
 02 10 2013  06 04  -21.0080 25995.8 -03484.2 -07.6337 26228.2
 02 10 2013  06 05  -21.0065 25995.7 -03484.3 -07.6340 26228.1
 02 10 2013  06 06  -21.0061 25995.1 -03484.4 -07.6344 26227.6
 02 10 2013  06 07  -21.0064 25993.3 -03483.9 -07.6338 26225.7
 02 10 2013  06 08  -21.0067 25992.0 -03483.5 -07.6334 26224.4
 02 10 2013  06 09  -21.0076 25990.4 -03483.1 -07.6329 26222.7
 02 10 2013  06 10  -21.0065 25989.4 -03482.7 -07.6324 26221.7
 02 10 2013  06 11  -21.0057 25989.1 -03482.8 -07.6327 26221.4
 02 10 2013  06 12  -21.0048 25989.0 -03483.1 -07.6335 26221.4
 02 10 2013  06 13  -21.0047 25988.6 -03483.3 -07.6340 26221.0
 02 10 2013  06 14  -21.0045 25987.8 -03483.3 -07.6341 26220.2
 02 10 2013  06 15  -21.0048 25987.1 -03483.2 -07.6341 26219.5
 02 10 2013  06 16  -21.0025 25988.4 -03483.9 -07.6354 26220.9
 02 10 2013  06 17  -21.0002 25989.3 -03484.8 -07.6370 26221.9
 02 10 2013  06 18  -20.9999 25988.5 -03484.8 -07.6372 26221.1
 02 10 2013  06 19  -20.9996 25987.3 -03484.5 -07.6369 26219.9
 02 10 2013  06 20  -20.9994 25986.2 -03484.2 -07.6365 26218.8
 02 10 2013  06 21  -20.9990 25985.8 -03484.2 -07.6367 26218.4
 02 10 2013  06 22  -20.9980 25986.6 -03484.8 -07.6377 26219.2
 02 10 2013  06 23  -20.9982 25987.6 -03485.7 -07.6395 26220.4
 02 10 2013  06 24  -20.9991 25987.9 -03486.2 -07.6405 26220.7
 02 10 2013  06 25  -20.9990 25988.2 -03486.6 -07.6413 26221.1
 02 10 2013  06 26  -20.9999 25989.1 -03487.3 -07.6424 26222.0
 02 10 2013  06 27  -21.0000 25988.5 -03487.1 -07.6422 26221.4
 02 10 2013  06 28  -21.0005 25986.7 -03486.2 -07.6408 26219.5
 02 10 2013  06 29  -21.0004 25986.6 -03485.9 -07.6402 26219.4
 02 10 2013  06 30  -20.9993 25988.0 -03486.7 -07.6414 26220.9
 02 10 2013  06 31  -20.9979 25989.2 -03487.5 -07.6428 26222.1
 02 10 2013  06 32  -20.9970 25988.7 -03487.4 -07.6427 26221.7
 02 10 2013  06 33  -20.9969 25986.7 -03486.5 -07.6414 26219.6
 02 10 2013  06 34  -20.9976 25985.1 -03485.6 -07.6399 26217.9
 02 10 2013  06 35  -20.9969 25987.4 -03486.7 -07.6416 26220.3
 02 10 2013  06 36  -20.9972 25988.6 -03487.7 -07.6436 26221.6
 02 10 2013  06 37  -21.0006 25985.0 -03486.5 -07.6418 26217.8
 02 10 2013  06 38  -21.0037 25982.1 -03484.8 -07.6391 26214.7
 02 10 2013  06 39  -21.0036 25983.4 -03485.3 -07.6397 26216.1
 02 10 2013  06 40  -21.0049 25983.5 -03485.7 -07.6405 26216.2
 02 10 2013  06 41  -21.0067 25981.8 -03485.0 -07.6395 26214.5
 02 10 2013  06 42  -21.0048 25984.2 -03486.0 -07.6410 26217.0
 02 10 2013  06 43  -21.0017 25986.3 -03487.1 -07.6429 26219.2
 02 10 2013  06 44  -21.0018 25985.3 -03487.0 -07.6429 26218.2
 02 10 2013  06 45  -21.0023 25983.4 -03486.1 -07.6416 26216.2
 02 10 2013  06 46  -21.0028 25981.9 -03485.5 -07.6406 26214.6
 02 10 2013  06 47  -21.0040 25979.6 -03484.4 -07.6390 26212.2
 02 10 2013  06 48  -21.0053 25978.7 -03484.0 -07.6383 26211.3
 02 10 2013  06 49  -21.0063 25978.6 -03484.1 -07.6385 26211.2
 02 10 2013  06 50  -21.0073 25978.7 -03484.3 -07.6391 26211.3
 02 10 2013  06 51  -21.0100 25977.2 -03483.9 -07.6387 26209.8
 02 10 2013  06 52  -21.0128 25976.6 -03483.8 -07.6386 26209.1
 02 10 2013  06 53  -21.0154 25976.1 -03483.8 -07.6387 26208.7
 02 10 2013  06 54  -21.0176 25975.8 -03483.8 -07.6387 26208.4
 02 10 2013  06 55  -21.0188 25976.4 -03484.1 -07.6392 26209.0
 02 10 2013  06 56  -21.0202 25976.9 -03484.5 -07.6399 26209.5
 02 10 2013  06 57  -21.0210 25977.0 -03484.6 -07.6402 26209.7
 02 10 2013  06 58  -21.0212 25976.6 -03484.4 -07.6399 26209.3
 02 10 2013  06 59  -21.0203 25976.6 -03484.4 -07.6397 26209.3
 02 10 2013  07 00  -21.0212 25975.8 -03484.1 -07.6394 26208.4
 02 10 2013  07 01  -21.0236 25974.3 -03483.5 -07.6386 26206.9
 02 10 2013  07 02  -21.0253 25973.6 -03483.3 -07.6382 26206.2
 02 10 2013  07 03  -21.0252 25973.2 -03483.1 -07.6379 26205.7
 02 10 2013  07 04  -21.0232 25972.6 -03482.7 -07.6374 26205.1
 02 10 2013  07 05  -21.0208 25972.3 -03482.7 -07.6373 26204.8
 02 10 2013  07 06  -21.0196 25971.6 -03482.5 -07.6371 26204.0
 02 10 2013  07 07  -21.0179 25972.1 -03483.1 -07.6382 26204.6
 02 10 2013  07 08  -21.0166 25971.1 -03482.9 -07.6381 26203.6
 02 10 2013  07 09  -21.0152 25970.7 -03483.0 -07.6384 26203.2
 02 10 2013  07 10  -21.0162 25969.7 -03482.8 -07.6384 26202.2
 02 10 2013  07 11  -21.0164 25970.2 -03483.4 -07.6396 26202.8
 02 10 2013  07 12  -21.0155 25971.5 -03484.4 -07.6413 26204.2
 02 10 2013  07 13  -21.0154 25972.7 -03485.3 -07.6430 26205.5
 02 10 2013  07 14  -21.0174 25972.4 -03485.6 -07.6436 26205.2
 02 10 2013  07 15  -21.0164 25975.0 -03486.8 -07.6455 26208.0
 02 10 2013  07 16  -21.0150 25975.3 -03487.1 -07.6461 26208.3
 02 10 2013  07 17  -21.0153 25974.7 -03486.9 -07.6458 26207.7
 02 10 2013  07 18  -21.0167 25975.1 -03487.1 -07.6462 26208.1
 02 10 2013  07 19  -21.0196 25975.1 -03487.3 -07.6466 26208.2
 02 10 2013  07 20  -21.0219 25975.7 -03487.7 -07.6472 26208.8
 02 10 2013  07 21  -21.0220 25976.4 -03488.0 -07.6477 26209.5
 02 10 2013  07 22  -21.0231 25976.1 -03487.8 -07.6472 26209.2
 02 10 2013  07 23  -21.0243 25975.9 -03487.6 -07.6469 26208.9
 02 10 2013  07 24  -21.0246 25973.8 -03486.5 -07.6451 26206.7
 02 10 2013  07 25  -21.0237 25972.0 -03485.2 -07.6429 26204.8
 02 10 2013  07 26  -21.0213 25973.4 -03485.6 -07.6433 26206.2
 02 10 2013  07 27  -21.0201 25974.0 -03486.1 -07.6444 26206.9
 02 10 2013  07 28  -21.0199 25973.3 -03485.9 -07.6441 26206.1
 02 10 2013  07 29  -21.0179 25973.3 -03485.9 -07.6439 26206.2
 02 10 2013  07 30  -21.0163 25973.2 -03485.9 -07.6440 26206.1
 02 10 2013  07 31  -21.0140 25973.7 -03486.2 -07.6444 26206.6
 02 10 2013  07 32  -21.0108 25973.4 -03486.2 -07.6446 26206.3
 02 10 2013  07 33  -21.0082 25972.1 -03485.6 -07.6436 26204.9
 02 10 2013  07 34  -21.0065 25971.1 -03485.3 -07.6433 26203.9
 02 10 2013  07 35  -21.0056 25970.2 -03485.1 -07.6431 26203.0
 02 10 2013  07 36  -21.0048 25970.5 -03485.5 -07.6440 26203.4
 02 10 2013  07 37  -21.0047 25971.0 -03486.1 -07.6452 26203.9
 02 10 2013  07 38  -21.0076 25969.9 -03486.0 -07.6453 26202.8
 02 10 2013  07 39  -21.0104 25969.6 -03486.1 -07.6456 26202.5
 02 10 2013  07 40  -21.0127 25969.6 -03486.3 -07.6461 26202.6
 02 10 2013  07 41  -21.0144 25969.9 -03486.6 -07.6464 26202.9
 02 10 2013  07 42  -21.0151 25971.2 -03487.2 -07.6474 26204.3
 02 10 2013  07 43  -21.0156 25972.8 -03488.0 -07.6487 26205.9
 02 10 2013  07 44  -21.0163 25972.7 -03488.0 -07.6488 26205.9
 02 10 2013  07 45  -21.0166 25973.0 -03488.1 -07.6489 26206.2
 02 10 2013  07 46  -21.0167 25973.0 -03488.0 -07.6487 26206.2
 02 10 2013  07 47  -21.0160 25973.1 -03487.9 -07.6484 26206.2
 02 10 2013  07 48  -21.0152 25972.9 -03487.7 -07.6480 26206.0
 02 10 2013  07 49  -21.0150 25973.4 -03487.9 -07.6483 26206.6
 02 10 2013  07 50  -21.0148 25975.4 -03488.9 -07.6500 26208.6
 02 10 2013  07 51  -21.0147 25977.8 -03490.2 -07.6521 26211.2
 02 10 2013  07 52  -21.0150 25978.8 -03490.9 -07.6533 26212.3
 02 10 2013  07 53  -21.0153 25978.5 -03490.7 -07.6529 26212.0
 02 10 2013  07 54  -21.0152 25977.6 -03490.0 -07.6518 26211.0
 02 10 2013  07 55  -21.0140 25976.8 -03489.4 -07.6506 26210.1
 02 10 2013  07 56  -21.0136 25975.8 -03488.6 -07.6492 26209.0
 02 10 2013  07 57  -21.0126 25976.8 -03489.0 -07.6497 26210.0
 02 10 2013  07 58  -21.0113 25977.2 -03489.2 -07.6500 26210.5
 02 10 2013  07 59  -21.0109 25977.6 -03489.4 -07.6503 26210.9
 02 10 2013  08 00  -21.0106 25978.1 -03489.6 -07.6507 26211.4
 02 10 2013  08 01  -21.0109 25978.5 -03489.8 -07.6511 26211.8
 02 10 2013  08 02  -21.0112 25978.7 -03490.0 -07.6513 26212.1
 02 10 2013  08 03  -21.0120 25979.2 -03490.2 -07.6516 26212.6
 02 10 2013  08 04  -21.0135 25979.5 -03490.3 -07.6518 26212.9
 02 10 2013  08 05  -21.0140 25979.7 -03490.3 -07.6517 26213.1
 02 10 2013  08 06  -21.0139 25980.1 -03490.3 -07.6516 26213.5
 02 10 2013  08 07  -21.0143 25980.5 -03490.4 -07.6517 26214.0
 02 10 2013  08 08  -21.0147 25981.3 -03490.7 -07.6521 26214.7
 02 10 2013  08 09  -21.0156 25980.0 -03490.1 -07.6511 26213.4
 02 10 2013  08 10  -21.0155 25979.2 -03489.3 -07.6496 26212.5
 02 10 2013  08 11  -21.0146 25980.2 -03489.5 -07.6499 26213.5
 02 10 2013  08 12  -21.0139 25980.4 -03489.6 -07.6499 26213.7
 02 10 2013  08 13  -21.0130 25980.4 -03489.4 -07.6495 26213.7
 02 10 2013  08 14  -21.0117 25981.0 -03489.6 -07.6499 26214.3
 02 10 2013  08 15  -21.0106 25982.5 -03490.4 -07.6511 26215.9
 02 10 2013  08 16  -21.0113 25982.1 -03490.4 -07.6511 26215.5
 02 10 2013  08 17  -21.0117 25981.8 -03490.1 -07.6506 26215.2
 02 10 2013  08 18  -21.0119 25982.4 -03490.4 -07.6510 26215.8
 02 10 2013  08 19  -21.0120 25983.0 -03490.6 -07.6515 26216.4
 02 10 2013  08 20  -21.0119 25983.2 -03490.6 -07.6514 26216.6
 02 10 2013  08 21  -21.0126 25983.2 -03490.6 -07.6513 26216.6
 02 10 2013  08 22  -21.0124 25984.8 -03491.2 -07.6522 26218.3
 02 10 2013  08 23  -21.0122 25984.6 -03491.1 -07.6521 26218.1
 02 10 2013  08 24  -21.0125 25984.2 -03490.9 -07.6516 26217.7
 02 10 2013  08 25  -21.0128 25983.3 -03490.3 -07.6506 26216.7
 02 10 2013  08 26  -21.0118 25983.5 -03490.1 -07.6501 26216.8
 02 10 2013  08 27  -21.0112 25984.6 -03490.6 -07.6509 26218.0
 02 10 2013  08 28  -21.0110 25985.0 -03490.9 -07.6515 26218.5
 02 10 2013  08 29  -21.0101 25984.6 -03490.7 -07.6511 26218.1
 02 10 2013  08 30  -21.0098 25985.0 -03490.9 -07.6515 26218.4
 02 10 2013  08 31  -21.0099 25984.6 -03490.9 -07.6515 26218.0
 02 10 2013  08 32  -21.0109 25982.3 -03489.9 -07.6501 26215.6
 02 10 2013  08 33  -21.0123 25980.9 -03489.2 -07.6489 26214.2
 02 10 2013  08 34  -21.0142 25980.3 -03489.1 -07.6488 26213.6
 02 10 2013  08 35  -21.0128 25979.9 -03488.9 -07.6485 26213.1
 02 10 2013  08 36  -21.0100 25982.0 -03489.7 -07.6497 26215.3
 02 10 2013  08 37  -21.0093 25983.3 -03490.8 -07.6517 26216.7
 02 10 2013  08 38  -21.0110 25982.7 -03491.0 -07.6523 26216.1
 02 10 2013  08 39  -21.0130 25981.8 -03490.8 -07.6523 26215.3
 02 10 2013  08 40  -21.0145 25980.9 -03490.5 -07.6518 26214.3
 02 10 2013  08 41  -21.0146 25980.6 -03490.3 -07.6515 26214.0
 02 10 2013  08 42  -21.0157 25980.0 -03490.3 -07.6515 26213.4
 02 10 2013  08 43  -21.0174 25980.4 -03490.6 -07.6522 26213.8
 02 10 2013  08 44  -21.0183 25981.3 -03491.2 -07.6531 26214.8
 02 10 2013  08 45  -21.0194 25982.8 -03492.0 -07.6545 26216.4
 02 10 2013  08 46  -21.0204 25984.1 -03492.7 -07.6557 26217.8
 02 10 2013  08 47  -21.0189 25987.3 -03494.2 -07.6579 26221.1
 02 10 2013  08 48  -21.0224 25987.5 -03494.6 -07.6587 26221.4
 02 10 2013  08 49  -21.0254 25987.0 -03494.1 -07.6579 26220.9
 02 10 2013  08 50  -21.0261 25986.6 -03493.6 -07.6569 26220.4
 02 10 2013  08 51  -21.0258 25986.2 -03493.2 -07.6562 26220.0
 02 10 2013  08 52  -21.0258 25986.1 -03493.1 -07.6559 26219.8
 02 10 2013  08 53  -21.0254 25986.3 -03493.2 -07.6560 26220.0
 02 10 2013  08 54  -21.0263 25986.9 -03493.5 -07.6566 26220.6
 02 10 2013  08 55  -21.0271 25986.5 -03493.5 -07.6566 26220.3
 02 10 2013  08 56  -21.0264 25986.1 -03493.1 -07.6559 26219.8
 02 10 2013  08 57  -21.0263 25985.7 -03492.9 -07.6555 26219.4
 02 10 2013  08 58  -21.0271 25984.8 -03492.6 -07.6552 26218.5
 02 10 2013  08 59  -21.0267 25984.2 -03492.4 -07.6550 26217.9
 02 10 2013  09 00  -21.0267 25983.8 -03492.3 -07.6548 26217.4
 02 10 2013  09 01  -21.0278 25984.4 -03492.7 -07.6555 26218.1
 02 10 2013  09 02  -21.0300 25984.1 -03492.7 -07.6556 26217.8
 02 10 2013  09 03  -21.0305 25984.9 -03493.1 -07.6561 26218.7
 02 10 2013  09 04  -21.0321 25984.2 -03492.8 -07.6557 26217.9
 02 10 2013  09 05  -21.0319 25983.5 -03492.3 -07.6549 26217.2
 02 10 2013  09 06  -21.0312 25983.9 -03492.4 -07.6550 26217.6
 02 10 2013  09 07  -21.0309 25984.6 -03492.6 -07.6552 26218.2
 02 10 2013  09 08  -21.0317 25985.4 -03492.9 -07.6557 26219.1
 02 10 2013  09 09  -21.0327 25986.2 -03493.2 -07.6561 26220.0
 02 10 2013  09 10  -21.0336 25986.6 -03493.3 -07.6561 26220.3
 02 10 2013  09 11  -21.0324 25987.6 -03493.5 -07.6563 26221.3
 02 10 2013  09 12  -21.0302 25990.1 -03494.6 -07.6579 26224.0
 02 10 2013  09 13  -21.0285 25991.0 -03495.2 -07.6591 26225.0
 02 10 2013  09 14  -21.0340 25989.7 -03494.5 -07.6578 26223.5
 02 10 2013  09 15  -21.0383 25990.3 -03494.4 -07.6575 26224.1
 02 10 2013  09 16  -21.0369 25989.5 -03493.5 -07.6558 26223.3
 02 10 2013  09 17  -21.0366 25991.5 -03494.1 -07.6565 26225.4
 02 10 2013  09 18  -21.0365 25991.6 -03494.3 -07.6568 26225.5
 02 10 2013  09 19  -21.0430 25987.4 -03492.2 -07.6536 26221.0
 02 10 2013  09 20  -21.0486 25987.6 -03491.7 -07.6525 26221.1
 02 10 2013  09 21  -21.0343 25988.2 -03492.0 -07.6529 26221.8
 02 10 2013  09 22  -21.0331 25988.5 -03492.4 -07.6536 26222.1
 02 10 2013  09 23  -21.0400 25987.3 -03491.8 -07.6528 26220.8
 02 10 2013  09 24  -21.0442 25986.2 -03491.4 -07.6521 26219.7
 02 10 2013  09 25  -21.0464 25984.8 -03490.5 -07.6507 26218.2
 02 10 2013  09 26  -21.0446 25985.6 -03490.8 -07.6511 26219.0
 02 10 2013  09 27  -21.0441 25986.3 -03491.4 -07.6521 26219.8
 02 10 2013  09 28  -21.0452 25986.3 -03491.3 -07.6519 26219.8
 02 10 2013  09 29  -21.0455 25986.1 -03491.1 -07.6517 26219.6
 02 10 2013  09 30  -21.0464 25985.6 -03490.9 -07.6513 26219.0
 02 10 2013  09 31  -21.0489 25985.3 -03490.7 -07.6509 26218.7
 02 10 2013  09 32  -21.0477 25986.6 -03491.2 -07.6516 26220.1
 02 10 2013  09 33  -21.0449 25987.4 -03491.2 -07.6515 26220.8
 02 10 2013  09 34  -21.0460 25988.4 -03491.4 -07.6516 26221.8
 02 10 2013  09 35  -21.0450 25989.5 -03492.0 -07.6525 26223.1
 02 10 2013  09 36  -21.0452 25989.8 -03492.1 -07.6526 26223.4
 02 10 2013  09 37  -21.0472 25990.1 -03491.9 -07.6522 26223.6
 02 10 2013  09 38  -21.0481 25990.7 -03492.0 -07.6521 26224.3
 02 10 2013  09 39  -21.0478 25990.9 -03491.6 -07.6514 26224.4
 02 10 2013  09 40  -21.0476 25991.2 -03491.4 -07.6507 26224.7
 02 10 2013  09 41  -21.0477 25992.2 -03491.7 -07.6510 26225.6
 02 10 2013  09 42  -21.0478 25994.0 -03492.5 -07.6522 26227.6
 02 10 2013  09 43  -21.0462 25995.4 -03493.1 -07.6532 26229.1
 02 10 2013  09 44  -21.0490 25995.6 -03493.1 -07.6531 26229.3
 02 10 2013  09 45  -21.0526 25996.6 -03493.2 -07.6531 26230.2
 02 10 2013  09 46  -21.0545 25997.2 -03493.1 -07.6526 26230.8
 02 10 2013  09 47  -21.0542 25997.4 -03492.6 -07.6516 26231.0
 02 10 2013  09 48  -21.0549 25996.2 -03491.5 -07.6496 26229.7
 02 10 2013  09 49  -21.0549 25996.7 -03491.6 -07.6495 26230.1
 02 10 2013  09 50  -21.0531 25996.7 -03491.5 -07.6494 26230.1
 02 10 2013  09 51  -21.0523 25996.5 -03491.3 -07.6490 26229.9
 02 10 2013  09 52  -21.0517 25996.5 -03491.3 -07.6490 26229.9
 02 10 2013  09 53  -21.0525 25997.0 -03491.6 -07.6494 26230.4
 02 10 2013  09 54  -21.0536 25997.7 -03491.8 -07.6498 26231.1
 02 10 2013  09 55  -21.0543 25998.1 -03491.9 -07.6498 26231.6
 02 10 2013  09 56  -21.0549 25998.7 -03492.1 -07.6500 26232.2
 02 10 2013  09 57  -21.0542 26000.0 -03492.6 -07.6507 26233.6
 02 10 2013  09 58  -21.0540 26000.2 -03492.7 -07.6508 26233.8
 02 10 2013  09 59  -21.0575 25999.3 -03492.1 -07.6498 26232.7
 02 10 2013  10 00  -21.0584 25999.6 -03491.8 -07.6492 26233.0
 02 10 2013  10 01  -21.0572 26000.0 -03491.5 -07.6484 26233.4
 02 10 2013  10 02  -21.0580 26000.4 -03491.4 -07.6481 26233.8
 02 10 2013  10 03  -21.0582 26000.0 -03491.0 -07.6472 26233.3
 02 10 2013  10 04  -21.0576 25999.8 -03490.7 -07.6467 26233.1
 02 10 2013  10 05  -21.0563 25999.9 -03490.8 -07.6469 26233.2
 02 10 2013  10 06  -21.0554 26001.2 -03491.6 -07.6482 26234.6
 02 10 2013  10 07  -21.0555 26001.1 -03491.6 -07.6483 26234.5
 02 10 2013  10 08  -21.0564 26001.4 -03491.6 -07.6483 26234.8
 02 10 2013  10 09  -21.0546 26002.4 -03492.0 -07.6488 26235.8
 02 10 2013  10 10  -21.0543 26003.7 -03492.5 -07.6495 26237.1
 02 10 2013  10 11  -21.0558 26004.9 -03492.9 -07.6499 26238.5
 02 10 2013  10 12  -21.0553 26005.3 -03492.7 -07.6494 26238.8
 02 10 2013  10 13  -21.0583 26005.8 -03492.5 -07.6488 26239.2
 02 10 2013  10 14  -21.0602 26006.8 -03492.6 -07.6487 26240.3
 02 10 2013  10 15  -21.0590 26006.9 -03492.2 -07.6479 26240.3
 02 10 2013  10 16  -21.0577 26008.0 -03492.4 -07.6479 26241.5
 02 10 2013  10 17  -21.0581 26008.2 -03492.4 -07.6480 26241.6
 02 10 2013  10 18  -21.0568 26006.8 -03491.6 -07.6467 26240.2
 02 10 2013  10 19  -21.0544 26005.5 -03490.6 -07.6447 26238.7
 02 10 2013  10 20  -21.0549 26002.9 -03489.4 -07.6429 26236.0
 02 10 2013  10 21  -21.0605 26001.6 -03489.6 -07.6439 26234.7
 02 10 2013  10 22  -21.0642 25999.0 -03489.0 -07.6432 26232.0
 02 10 2013  10 23  -21.0627 25997.5 -03488.2 -07.6420 26230.5
 02 10 2013  10 24  -21.0609 25999.0 -03488.8 -07.6428 26232.1
 02 10 2013  10 25  -21.0606 26003.8 -03490.7 -07.6455 26237.0
 02 10 2013  10 26  -21.0570 26007.6 -03491.8 -07.6469 26241.0
 02 10 2013  10 27  -21.0586 26007.4 -03491.3 -07.6459 26240.7
 02 10 2013  10 28  -21.0630 26005.3 -03490.3 -07.6443 26238.5
 02 10 2013  10 29  -21.0679 26003.8 -03489.7 -07.6434 26236.9
 02 10 2013  10 30  -21.0707 26003.8 -03489.7 -07.6434 26236.9
 02 10 2013  10 31  -21.0707 26006.5 -03490.7 -07.6448 26239.8
 02 10 2013  10 32  -21.0680 26009.2 -03491.5 -07.6457 26242.5
 02 10 2013  10 33  -21.0675 26009.6 -03491.3 -07.6451 26242.8
 02 10 2013  10 34  -21.0691 26007.9 -03490.2 -07.6432 26241.1
 02 10 2013  10 35  -21.0705 26006.9 -03489.5 -07.6422 26239.9
 02 10 2013  10 36  -21.0702 26006.3 -03489.2 -07.6416 26239.3
 02 10 2013  10 37  -21.0705 26006.3 -03489.2 -07.6416 26239.3
 02 10 2013  10 38  -21.0695 26007.3 -03489.6 -07.6421 26240.4
 02 10 2013  10 39  -21.0668 26006.9 -03489.0 -07.6410 26239.9
 02 10 2013  10 40  -21.0665 26005.9 -03488.5 -07.6401 26238.9
 02 10 2013  10 41  -21.0687 26003.9 -03487.7 -07.6390 26236.7
 02 10 2013  10 42  -21.0706 26004.6 -03488.3 -07.6402 26237.6
 02 10 2013  10 43  -21.0678 26007.8 -03489.8 -07.6425 26240.8
 02 10 2013  10 44  -21.0652 26009.5 -03490.2 -07.6429 26242.6
 02 10 2013  10 45  -21.0651 26010.1 -03490.1 -07.6423 26243.2
 02 10 2013  10 46  -21.0656 26009.7 -03489.6 -07.6415 26242.8
 02 10 2013  10 47  -21.0700 26006.2 -03487.7 -07.6383 26239.0
 02 10 2013  10 48  -21.0729 26004.8 -03486.9 -07.6370 26237.5
 02 10 2013  10 49  -21.0743 26005.5 -03487.2 -07.6375 26238.3
 02 10 2013  10 50  -21.0747 26006.1 -03487.4 -07.6378 26238.9
 02 10 2013  10 51  -21.0733 26006.9 -03487.8 -07.6384 26239.7
 02 10 2013  10 52  -21.0728 26007.6 -03488.2 -07.6391 26240.5
 02 10 2013  10 53  -21.0724 26008.2 -03488.5 -07.6395 26241.2
 02 10 2013  10 54  -21.0746 26007.3 -03488.0 -07.6386 26240.1
 02 10 2013  10 55  -21.0752 26008.8 -03488.4 -07.6392 26241.7
 02 10 2013  10 56  -21.0737 26011.0 -03489.2 -07.6403 26244.0
 02 10 2013  10 57  -21.0729 26012.3 -03489.4 -07.6402 26245.3
 02 10 2013  10 58  -21.0725 26014.5 -03489.9 -07.6406 26247.5
 02 10 2013  10 59  -21.0700 26017.9 -03490.9 -07.6419 26251.0
 02 10 2013  11 00  -21.0681 26018.5 -03490.6 -07.6410 26251.6
 02 10 2013  11 01  -21.0687 26017.4 -03489.6 -07.6391 26250.4
 02 10 2013  11 02  -21.0695 26018.2 -03489.1 -07.6379 26251.1
 02 10 2013  11 03  -21.0706 26019.9 -03489.3 -07.6379 26252.8
 02 10 2013  11 04  -21.0705 26019.8 -03488.9 -07.6371 26252.7
 02 10 2013  11 05  -21.0697 26020.3 -03489.0 -07.6370 26253.2
 02 10 2013  11 06  -21.0684 26020.4 -03488.8 -07.6365 26253.3
 02 10 2013  11 07  -21.0681 26021.5 -03488.9 -07.6366 26254.3
 02 10 2013  11 08  -21.0683 26022.2 -03488.9 -07.6362 26255.1
 02 10 2013  11 09  -21.0671 26022.1 -03488.4 -07.6353 26254.9
 02 10 2013  11 10  -21.0659 26023.3 -03488.4 -07.6350 26256.0
 02 10 2013  11 11  -21.0657 26022.5 -03487.9 -07.6340 26255.3
 02 10 2013  11 12  -21.0650 26022.3 -03487.7 -07.6336 26255.0
 02 10 2013  11 13  -21.0643 26023.6 -03488.2 -07.6343 26256.4
 02 10 2013  11 14  -21.0637 26022.5 -03487.4 -07.6330 26255.2
 02 10 2013  11 15  -21.0637 26021.0 -03486.6 -07.6317 26253.5
 02 10 2013  11 16  -21.0675 26020.8 -03486.6 -07.6318 26253.3
 02 10 2013  11 17  -21.0674 26022.2 -03487.2 -07.6326 26254.8
 02 10 2013  11 18  -21.0631 26021.5 -03486.4 -07.6311 26254.0
 02 10 2013  11 19  -21.0614 26021.4 -03486.1 -07.6304 26253.9
 02 10 2013  11 20  -21.0611 26022.5 -03486.3 -07.6307 26255.0
 02 10 2013  11 21  -21.0624 26023.7 -03486.7 -07.6312 26256.3
 02 10 2013  11 22  -21.0643 26027.6 -03488.4 -07.6337 26260.4
 02 10 2013  11 23  -21.0636 26029.6 -03488.9 -07.6342 26262.3
 02 10 2013  11 24  -21.0642 26029.8 -03488.7 -07.6337 26262.5
 02 10 2013  11 25  -21.0635 26031.1 -03489.1 -07.6342 26263.9
 02 10 2013  11 26  -21.0629 26028.7 -03487.8 -07.6319 26261.4
 02 10 2013  11 27  -21.0611 26029.0 -03487.4 -07.6311 26261.5
 02 10 2013  11 28  -21.0598 26031.9 -03488.2 -07.6320 26264.6
 02 10 2013  11 29  -21.0613 26034.7 -03488.7 -07.6323 26267.5
 02 10 2013  11 30  -21.0640 26033.9 -03487.5 -07.6299 26266.5
 02 10 2013  11 31  -21.0624 26034.2 -03486.8 -07.6282 26266.7
 02 10 2013  11 32  -21.0591 26036.4 -03487.2 -07.6285 26268.9
 02 10 2013  11 33  -21.0585 26037.9 -03487.6 -07.6290 26270.5
 02 10 2013  11 34  -21.0581 26039.4 -03487.9 -07.6291 26271.9
 02 10 2013  11 35  -21.0596 26037.5 -03486.7 -07.6271 26269.9
 02 10 2013  11 36  -21.0600 26035.0 -03485.2 -07.6246 26267.3
 02 10 2013  11 37  -21.0612 26033.5 -03484.3 -07.6232 26265.6
 02 10 2013  11 38  -21.0641 26033.0 -03484.3 -07.6232 26265.2
 02 10 2013  11 39  -21.0653 26032.5 -03484.4 -07.6235 26264.6
 02 10 2013  11 40  -21.0663 26032.7 -03484.9 -07.6247 26264.9
 02 10 2013  11 41  -21.0658 26031.6 -03484.8 -07.6246 26263.8
 02 10 2013  11 42  -21.0678 26029.8 -03484.1 -07.6238 26262.0
 02 10 2013  11 43  -21.0688 26029.4 -03483.7 -07.6231 26261.5
 02 10 2013  11 44  -21.0697 26030.1 -03483.7 -07.6229 26262.1
 02 10 2013  11 45  -21.0715 26032.2 -03484.5 -07.6239 26264.3
 02 10 2013  11 46  -21.0714 26034.0 -03485.1 -07.6246 26266.3
 02 10 2013  11 47  -21.0692 26035.6 -03485.3 -07.6246 26267.8
 02 10 2013  11 48  -21.0679 26035.7 -03484.8 -07.6235 26267.8
 02 10 2013  11 49  -21.0689 26032.9 -03483.3 -07.6210 26264.9
 02 10 2013  11 50  -21.0702 26030.3 -03482.0 -07.6190 26262.2
 02 10 2013  11 51  -21.0736 26030.1 -03482.2 -07.6195 26262.0
 02 10 2013  11 52  -21.0773 26029.6 -03482.4 -07.6201 26261.5
 02 10 2013  11 53  -21.0801 26026.8 -03481.3 -07.6186 26258.6
 02 10 2013  11 54  -21.0819 26023.6 -03480.3 -07.6172 26255.3
 02 10 2013  11 55  -21.0820 26022.6 -03480.1 -07.6172 26254.3
 02 10 2013  11 56  -21.0824 26021.3 -03480.0 -07.6174 26253.0
 02 10 2013  11 57  -21.0834 26019.6 -03479.8 -07.6174 26251.2
 02 10 2013  11 58  -21.0809 26017.4 -03479.2 -07.6167 26249.0
 02 10 2013  11 59  -21.0795 26017.0 -03479.6 -07.6176 26248.7
 02 10 2013  12 00  -21.0794 26017.0 -03480.0 -07.6186 26248.7
 02 10 2013  12 01  -21.0795 26016.2 -03480.1 -07.6191 26248.0
 02 10 2013  12 02  -21.0790 26016.3 -03480.6 -07.6200 26248.1
 02 10 2013  12 03  -21.0781 26016.3 -03480.8 -07.6205 26248.1
 02 10 2013  12 04  -21.0777 26016.9 -03481.1 -07.6210 26248.7
 02 10 2013  12 05  -21.0773 26016.9 -03480.9 -07.6206 26248.7
 02 10 2013  12 06  -21.0764 26016.4 -03480.6 -07.6200 26248.1
 02 10 2013  12 07  -21.0759 26016.0 -03480.4 -07.6198 26247.8
 02 10 2013  12 08  -21.0775 26016.0 -03480.6 -07.6202 26247.8
 02 10 2013  12 09  -21.0777 26015.4 -03480.8 -07.6207 26247.3
 02 10 2013  12 10  -21.0771 26014.6 -03480.6 -07.6206 26246.4
 02 10 2013  12 11  -21.0762 26016.0 -03481.4 -07.6219 26247.9
 02 10 2013  12 12  -21.0757 26017.9 -03482.3 -07.6232 26249.9
 02 10 2013  12 13  -21.0745 26019.9 -03482.9 -07.6240 26252.0
 02 10 2013  12 14  -21.0733 26023.5 -03483.8 -07.6250 26255.7
 02 10 2013  12 15  -21.0720 26025.3 -03483.9 -07.6247 26257.4
 02 10 2013  12 16  -21.0715 26028.0 -03484.5 -07.6251 26260.2
 02 10 2013  12 17  -21.0735 26032.5 -03485.7 -07.6264 26264.8
 02 10 2013  12 18  -21.0754 26034.8 -03485.6 -07.6256 26267.1
 02 10 2013  12 19  -21.0746 26030.9 -03482.5 -07.6199 26262.8
 02 10 2013  12 20  -21.0748 26028.5 -03480.4 -07.6160 26260.2
 02 10 2013  12 21  -21.0772 26027.9 -03480.0 -07.6153 26259.5
 02 10 2013  12 22  -21.0783 26026.8 -03479.7 -07.6151 26258.4
 02 10 2013  12 23  -21.0759 26024.9 -03479.1 -07.6143 26256.4
 02 10 2013  12 24  -21.0744 26023.7 -03479.0 -07.6144 26255.2
 02 10 2013  12 25  -21.0746 26024.0 -03479.6 -07.6157 26255.6
 02 10 2013  12 26  -21.0754 26026.0 -03480.7 -07.6176 26257.8
 02 10 2013  12 27  -21.0761 26026.4 -03480.9 -07.6179 26258.2
 02 10 2013  12 28  -21.0769 26027.2 -03481.2 -07.6182 26259.0
 02 10 2013  12 29  -21.0778 26028.7 -03481.9 -07.6192 26260.6
 02 10 2013  12 30  -21.0768 26029.8 -03482.2 -07.6196 26261.7
 02 10 2013  12 31  -21.0775 26030.1 -03482.1 -07.6193 26261.9
 02 10 2013  12 32  -21.0777 26030.2 -03481.9 -07.6189 26262.0
 02 10 2013  12 33  -21.0764 26031.5 -03482.4 -07.6195 26263.3
 02 10 2013  12 34  -21.0758 26032.4 -03482.6 -07.6197 26264.3
 02 10 2013  12 35  -21.0762 26032.3 -03482.2 -07.6189 26264.2
 02 10 2013  12 36  -21.0766 26031.3 -03481.4 -07.6174 26263.1
 02 10 2013  12 37  -21.0773 26029.6 -03480.4 -07.6159 26261.2
 02 10 2013  12 38  -21.0773 26026.3 -03479.1 -07.6139 26257.9
 02 10 2013  12 39  -21.0765 26024.9 -03478.8 -07.6138 26256.4
 02 10 2013  12 40  -21.0752 26022.3 -03478.3 -07.6133 26253.8
 02 10 2013  12 41  -21.0743 26021.9 -03478.8 -07.6147 26253.4
 02 10 2013  12 42  -21.0737 26024.5 -03480.5 -07.6174 26256.2
 02 10 2013  12 43  -21.0734 26027.4 -03481.8 -07.6196 26259.2
 02 10 2013  12 44  -21.0741 26029.0 -03482.3 -07.6201 26260.9
 02 10 2013  12 45  -21.0751 26028.5 -03481.8 -07.6192 26260.3
 02 10 2013  12 46  -21.0750 26028.0 -03481.4 -07.6183 26259.8
 02 10 2013  12 47  -21.0749 26027.1 -03480.8 -07.6174 26258.8
 02 10 2013  12 48  -21.0751 26026.2 -03480.4 -07.6168 26257.9
 02 10 2013  12 49  -21.0750 26025.5 -03480.2 -07.6165 26257.1
 02 10 2013  12 50  -21.0750 26024.7 -03479.9 -07.6161 26256.3
 02 10 2013  12 51  -21.0738 26024.7 -03480.1 -07.6165 26256.3
 02 10 2013  12 52  -21.0734 26025.6 -03480.7 -07.6176 26257.4
 02 10 2013  12 53  -21.0745 26025.4 -03480.5 -07.6172 26257.1
 02 10 2013  12 54  -21.0765 26024.7 -03480.0 -07.6164 26256.3
 02 10 2013  12 55  -21.0764 26022.9 -03479.1 -07.6149 26254.5
 02 10 2013  12 56  -21.0759 26022.6 -03479.2 -07.6152 26254.2
 02 10 2013  12 57  -21.0745 26022.3 -03479.4 -07.6157 26253.9
 02 10 2013  12 58  -21.0731 26023.1 -03480.0 -07.6167 26254.7
 02 10 2013  12 59  -21.0731 26024.9 -03480.7 -07.6179 26256.6
 02 10 2013  13 00  -21.0737 26025.6 -03480.8 -07.6179 26257.4
 02 10 2013  13 01  -21.0749 26025.2 -03480.4 -07.6170 26256.8
 02 10 2013  13 02  -21.0753 26023.6 -03479.5 -07.6156 26255.2
 02 10 2013  13 03  -21.0743 26022.9 -03479.2 -07.6152 26254.4
 02 10 2013  13 04  -21.0740 26022.3 -03479.2 -07.6152 26253.8
 02 10 2013  13 05  -21.0739 26021.8 -03479.1 -07.6154 26253.3
 02 10 2013  13 06  -21.0741 26021.9 -03479.4 -07.6158 26253.5
 02 10 2013  13 07  -21.0737 26021.5 -03479.3 -07.6158 26253.1
 02 10 2013  13 08  -21.0736 26021.9 -03479.7 -07.6165 26253.6
 02 10 2013  13 09  -21.0732 26021.9 -03479.9 -07.6168 26253.6
 02 10 2013  13 10  -21.0736 26023.1 -03480.4 -07.6177 26254.8
 02 10 2013  13 11  -21.0736 26021.7 -03479.7 -07.6166 26253.3
 02 10 2013  13 12  -21.0730 26021.3 -03479.6 -07.6165 26253.0
 02 10 2013  13 13  -21.0733 26020.9 -03479.5 -07.6164 26252.5
 02 10 2013  13 14  -21.0740 26020.1 -03479.3 -07.6162 26251.7
 02 10 2013  13 15  -21.0731 26021.6 -03480.1 -07.6174 26253.3
 02 10 2013  13 16  -21.0734 26021.5 -03480.1 -07.6176 26253.1
 02 10 2013  13 17  -21.0736 26020.4 -03479.7 -07.6170 26252.1
 02 10 2013  13 18  -21.0735 26020.8 -03480.1 -07.6176 26252.4
 02 10 2013  13 19  -21.0738 26020.5 -03480.2 -07.6179 26252.2
 02 10 2013  13 20  -21.0730 26020.8 -03480.5 -07.6185 26252.6
 02 10 2013  13 21  -21.0735 26022.2 -03481.2 -07.6196 26254.1
 02 10 2013  13 22  -21.0742 26022.9 -03481.4 -07.6200 26254.7
 02 10 2013  13 23  -21.0740 26023.0 -03481.5 -07.6200 26254.8
 02 10 2013  13 24  -21.0737 26022.7 -03481.4 -07.6199 26254.5
 02 10 2013  13 25  -21.0733 26021.3 -03480.7 -07.6189 26253.1
 02 10 2013  13 26  -21.0732 26020.5 -03480.5 -07.6187 26252.2
 02 10 2013  13 27  -21.0731 26021.0 -03481.0 -07.6196 26252.8
 02 10 2013  13 28  -21.0733 26022.1 -03481.7 -07.6208 26253.9
 02 10 2013  13 29  -21.0737 26022.7 -03482.0 -07.6213 26254.6
 02 10 2013  13 30  -21.0748 26021.5 -03481.4 -07.6203 26253.4
 02 10 2013  13 31  -21.0738 26019.5 -03480.5 -07.6190 26251.3
 02 10 2013  13 32  -21.0738 26020.9 -03481.5 -07.6207 26252.8
 02 10 2013  13 33  -21.0739 26020.6 -03481.6 -07.6209 26252.5
 02 10 2013  13 34  -21.0740 26021.0 -03481.9 -07.6215 26252.9
 02 10 2013  13 35  -21.0743 26021.6 -03482.3 -07.6222 26253.6
 02 10 2013  13 36  -21.0743 26021.8 -03482.4 -07.6224 26253.8
 02 10 2013  13 37  -21.0744 26021.5 -03482.3 -07.6222 26253.4
 02 10 2013  13 38  -21.0734 26020.7 -03482.0 -07.6218 26252.6
 02 10 2013  13 39  -21.0734 26021.6 -03482.5 -07.6226 26253.6
 02 10 2013  13 40  -21.0745 26022.7 -03482.9 -07.6232 26254.7
 02 10 2013  13 41  -21.0756 26022.1 -03482.6 -07.6226 26254.1
 02 10 2013  13 42  -21.0761 26021.3 -03482.1 -07.6219 26253.2
 02 10 2013  13 43  -21.0767 26020.9 -03482.0 -07.6218 26252.8
 02 10 2013  13 44  -21.0759 26019.1 -03481.4 -07.6209 26250.9
 02 10 2013  13 45  -21.0750 26018.2 -03481.2 -07.6208 26250.1
 02 10 2013  13 46  -21.0747 26018.4 -03481.4 -07.6212 26250.2
 02 10 2013  13 47  -21.0748 26018.1 -03481.5 -07.6214 26250.0
 02 10 2013  13 48  -21.0741 26015.8 -03480.6 -07.6201 26247.6
 02 10 2013  13 49  -21.0734 26014.9 -03480.5 -07.6202 26246.7
 02 10 2013  13 50  -21.0722 26014.4 -03480.6 -07.6207 26246.2
 02 10 2013  13 51  -21.0724 26014.5 -03481.2 -07.6218 26246.4
 02 10 2013  13 52  -21.0728 26015.1 -03481.8 -07.6230 26247.0
 02 10 2013  13 53  -21.0728 26015.8 -03482.2 -07.6237 26247.8
 02 10 2013  13 54  -21.0719 26014.6 -03481.7 -07.6229 26246.6
 02 10 2013  13 55  -21.0713 26013.2 -03481.2 -07.6223 26245.1
 02 10 2013  13 56  -21.0711 26013.9 -03481.7 -07.6232 26245.8
 02 10 2013  13 57  -21.0711 26014.4 -03482.2 -07.6240 26246.4
 02 10 2013  13 58  -21.0706 26014.1 -03482.2 -07.6241 26246.1
 02 10 2013  13 59  -21.0701 26013.6 -03482.2 -07.6244 26245.6
 02 10 2013  14 00  -21.0699 26013.4 -03482.4 -07.6248 26245.4
 02 10 2013  14 01  -21.0688 26012.6 -03482.3 -07.6247 26244.7
 02 10 2013  14 02  -21.0692 26012.2 -03482.4 -07.6251 26244.3
 02 10 2013  14 03  -21.0681 26011.1 -03482.1 -07.6249 26243.1
 02 10 2013  14 04  -21.0671 26010.9 -03482.4 -07.6256 26243.0
 02 10 2013  14 05  -21.0665 26011.1 -03482.9 -07.6266 26243.2
 02 10 2013  14 06  -21.0653 26010.6 -03482.9 -07.6266 26242.7
 02 10 2013  14 07  -21.0648 26010.1 -03483.0 -07.6271 26242.3
 02 10 2013  14 08  -21.0633 26010.2 -03483.4 -07.6280 26242.5
 02 10 2013  14 09  -21.0628 26009.8 -03483.9 -07.6290 26242.1
 02 10 2013  14 10  -21.0613 26010.8 -03484.5 -07.6302 26243.1
 02 10 2013  14 11  -21.0607 26011.6 -03485.1 -07.6312 26244.0
 02 10 2013  14 12  -21.0612 26013.5 -03486.0 -07.6326 26246.0
 02 10 2013  14 13  -21.0620 26014.3 -03486.4 -07.6333 26246.9
 02 10 2013  14 14  -21.0602 26014.8 -03486.6 -07.6336 26247.4
 02 10 2013  14 15  -21.0586 26013.6 -03486.1 -07.6326 26246.2
 02 10 2013  14 16  -21.0566 26012.9 -03485.8 -07.6323 26245.4
 02 10 2013  14 17  -21.0572 26016.2 -03487.6 -07.6353 26249.0
 02 10 2013  14 18  -21.0605 26018.0 -03488.5 -07.6366 26250.9
 02 10 2013  14 19  -21.0616 26017.5 -03487.8 -07.6352 26250.2
 02 10 2013  14 20  -21.0610 26015.5 -03486.8 -07.6337 26248.1
 02 10 2013  14 21  -21.0586 26012.8 -03485.9 -07.6327 26245.3
 02 10 2013  14 22  -21.0559 26010.6 -03485.6 -07.6324 26243.1
 02 10 2013  14 23  -21.0579 26013.1 -03487.3 -07.6355 26245.8
 02 10 2013  14 24  -21.0582 26014.5 -03488.0 -07.6367 26247.3
 02 10 2013  14 25  -21.0580 26014.3 -03487.9 -07.6365 26247.1
 02 10 2013  14 26  -21.0576 26013.5 -03487.7 -07.6363 26246.3
 02 10 2013  14 27  -21.0541 26010.3 -03486.5 -07.6345 26242.9
 02 10 2013  14 28  -21.0526 26008.9 -03486.5 -07.6350 26241.5
 02 10 2013  14 29  -21.0533 26009.4 -03487.6 -07.6372 26242.2
 02 10 2013  14 30  -21.0521 26008.9 -03487.9 -07.6380 26241.7
 02 10 2013  14 31  -21.0514 26007.9 -03488.1 -07.6387 26240.8
 02 10 2013  14 32  -21.0500 26006.2 -03487.9 -07.6387 26239.0
 02 10 2013  14 33  -21.0495 26005.3 -03488.2 -07.6396 26238.2
 02 10 2013  14 34  -21.0499 26005.4 -03489.0 -07.6414 26238.4
 02 10 2013  14 35  -21.0497 26006.4 -03490.0 -07.6433 26239.5
 02 10 2013  14 36  -21.0511 26009.7 -03491.9 -07.6465 26243.1
 02 10 2013  14 37  -21.0510 26011.1 -03492.5 -07.6474 26244.5
 02 10 2013  14 38  -21.0499 26009.9 -03491.8 -07.6462 26243.3
 02 10 2013  14 39  -21.0491 26007.3 -03490.6 -07.6444 26240.5
 02 10 2013  14 40  -21.0475 26005.7 -03490.1 -07.6437 26238.8
 02 10 2013  14 41  -21.0468 26005.4 -03490.5 -07.6446 26238.6
 02 10 2013  14 42  -21.0458 26005.4 -03491.0 -07.6457 26238.7
 02 10 2013  14 43  -21.0457 26004.5 -03491.2 -07.6464 26237.8
 02 10 2013  14 44  -21.0464 26004.6 -03491.9 -07.6480 26238.1
 02 10 2013  14 45  -21.0457 26006.5 -03493.2 -07.6501 26240.0
 02 10 2013  14 46  -21.0447 26007.3 -03493.5 -07.6507 26240.9
 02 10 2013  14 47  -21.0441 26007.4 -03493.6 -07.6508 26241.0
 02 10 2013  14 48  -21.0431 26006.7 -03493.4 -07.6505 26240.3
 02 10 2013  14 49  -21.0430 26007.0 -03493.6 -07.6510 26240.6
 02 10 2013  14 50  -21.0433 26007.1 -03493.9 -07.6515 26240.7
 02 10 2013  14 51  -21.0423 26005.5 -03493.4 -07.6510 26239.0
 02 10 2013  14 52  -21.0404 26003.7 -03493.2 -07.6510 26237.3
 02 10 2013  14 53  -21.0399 26003.0 -03493.7 -07.6524 26236.6
 02 10 2013  14 54  -21.0397 26002.8 -03494.4 -07.6538 26236.5
 02 10 2013  14 55  -21.0400 26002.7 -03494.8 -07.6548 26236.5
 02 10 2013  14 56  -21.0394 26002.9 -03495.2 -07.6556 26236.7
 02 10 2013  14 57  -21.0388 26003.3 -03495.6 -07.6563 26237.2
 02 10 2013  14 58  -21.0383 26003.2 -03495.8 -07.6568 26237.1
 02 10 2013  14 59  -21.0366 26002.2 -03495.8 -07.6571 26236.2
 02 10 2013  15 00  -21.0355 26002.4 -03496.6 -07.6587 26236.5
 02 10 2013  15 01  -21.0358 26003.5 -03497.6 -07.6605 26237.7
 02 10 2013  15 02  -21.0359 26004.7 -03498.2 -07.6615 26238.9
 02 10 2013  15 03  -21.0372 26006.5 -03498.8 -07.6623 26240.8
 02 10 2013  15 04  -21.0381 26006.8 -03498.6 -07.6618 26241.1
 02 10 2013  15 05  -21.0355 26005.5 -03497.7 -07.6602 26239.7
 02 10 2013  15 06  -21.0323 26003.3 -03496.8 -07.6590 26237.4
 02 10 2013  15 07  -21.0314 26001.4 -03496.8 -07.6595 26235.5
 02 10 2013  15 08  -21.0316 26001.7 -03497.9 -07.6618 26236.0
 02 10 2013  15 09  -21.0321 26004.1 -03499.6 -07.6647 26238.5
 02 10 2013  15 10  -21.0332 26005.8 -03500.3 -07.6658 26240.3
 02 10 2013  15 11  -21.0330 26005.0 -03499.7 -07.6647 26239.4
 02 10 2013  15 12  -21.0309 26003.1 -03498.8 -07.6633 26237.4
 02 10 2013  15 13  -21.0301 26002.7 -03499.0 -07.6639 26237.1
 02 10 2013  15 14  -21.0304 26002.3 -03499.2 -07.6644 26236.7
 02 10 2013  15 15  -21.0322 26002.4 -03499.6 -07.6652 26236.9
 02 10 2013  15 16  -21.0328 26002.6 -03499.9 -07.6658 26237.1
 02 10 2013  15 17  -21.0301 26000.7 -03499.2 -07.6648 26235.1
 02 10 2013  15 18  -21.0282 26000.3 -03499.6 -07.6658 26234.8
 02 10 2013  15 19  -21.0317 26004.9 -03502.4 -07.6705 26239.7
 02 10 2013  15 20  -21.0353 26008.9 -03504.0 -07.6728 26243.8
 02 10 2013  15 21  -21.0353 26009.8 -03503.3 -07.6711 26244.6
 02 10 2013  15 22  -21.0344 26010.2 -03502.6 -07.6694 26245.0
 02 10 2013  15 23  -21.0333 26008.8 -03501.3 -07.6671 26243.4
 02 10 2013  15 24  -21.0304 26007.5 -03500.4 -07.6655 26242.0
 02 10 2013  15 25  -21.0286 26007.2 -03500.5 -07.6657 26241.7
 02 10 2013  15 26  -21.0287 26007.9 -03501.2 -07.6670 26242.5
 02 10 2013  15 27  -21.0291 26008.3 -03501.6 -07.6679 26243.0
 02 10 2013  15 28  -21.0289 26008.5 -03501.8 -07.6681 26243.2
 02 10 2013  15 29  -21.0283 26007.8 -03501.4 -07.6676 26242.5
 02 10 2013  15 30  -21.0277 26007.0 -03501.2 -07.6672 26241.6
 02 10 2013  15 31  -21.0275 26006.9 -03501.4 -07.6677 26241.6
 02 10 2013  15 32  -21.0281 26007.6 -03502.0 -07.6688 26242.3
 02 10 2013  15 33  -21.0283 26007.6 -03502.2 -07.6692 26242.3
 02 10 2013  15 34  -21.0282 26007.4 -03502.2 -07.6694 26242.2
 02 10 2013  15 35  -21.0284 26007.3 -03502.3 -07.6697 26242.1
 02 10 2013  15 36  -21.0282 26007.0 -03502.3 -07.6698 26241.8
 02 10 2013  15 37  -21.0285 26007.9 -03502.9 -07.6708 26242.7
 02 10 2013  15 38  -21.0295 26008.9 -03503.5 -07.6718 26243.8
 02 10 2013  15 39  -21.0303 26009.2 -03503.7 -07.6721 26244.2
 02 10 2013  15 40  -21.0298 26008.2 -03503.1 -07.6710 26243.0
 02 10 2013  15 41  -21.0292 26007.2 -03502.6 -07.6703 26242.0
 02 10 2013  15 42  -21.0288 26006.2 -03502.4 -07.6701 26241.0
 02 10 2013  15 43  -21.0282 26006.1 -03502.6 -07.6707 26240.9
 02 10 2013  15 44  -21.0281 26005.7 -03502.8 -07.6712 26240.6
 02 10 2013  15 45  -21.0277 26005.5 -03503.1 -07.6719 26240.4
 02 10 2013  15 46  -21.0275 26006.1 -03503.7 -07.6731 26241.1
 02 10 2013  15 47  -21.0271 26006.9 -03504.3 -07.6741 26242.0
 02 10 2013  15 48  -21.0274 26008.7 -03505.3 -07.6758 26243.8
 02 10 2013  15 49  -21.0294 26010.3 -03506.1 -07.6770 26245.5
 02 10 2013  15 50  -21.0315 26010.2 -03505.8 -07.6763 26245.4
 02 10 2013  15 51  -21.0320 26008.7 -03504.8 -07.6746 26243.8
 02 10 2013  15 52  -21.0304 26006.2 -03503.6 -07.6727 26241.2
 02 10 2013  15 53  -21.0296 26004.6 -03503.2 -07.6724 26239.5
 02 10 2013  15 54  -21.0293 26003.5 -03503.3 -07.6730 26238.5
 02 10 2013  15 55  -21.0290 26002.5 -03503.3 -07.6733 26237.4
 02 10 2013  15 56  -21.0291 26001.3 -03503.3 -07.6736 26236.3
 02 10 2013  15 57  -21.0285 25999.8 -03503.2 -07.6738 26234.8
 02 10 2013  15 58  -21.0283 25999.5 -03503.7 -07.6750 26234.6
 02 10 2013  15 59  -21.0293 25999.3 -03504.3 -07.6764 26234.4
 02 10 2013  16 00  -21.0299 26000.1 -03505.2 -07.6780 26235.3
 02 10 2013  16 01  -21.0304 26000.2 -03505.6 -07.6789 26235.5
 02 10 2013  16 02  -21.0321 26000.5 -03506.1 -07.6798 26235.8
 02 10 2013  16 03  -21.0319 26000.4 -03506.1 -07.6798 26235.7
 02 10 2013  16 04  -21.0327 26000.4 -03506.1 -07.6800 26235.7
 02 10 2013  16 05  -21.0350 26000.8 -03506.5 -07.6806 26236.2
 02 10 2013  16 06  -21.0351 26001.4 -03506.5 -07.6805 26236.7
 02 10 2013  16 07  -21.0361 26002.5 -03507.0 -07.6812 26237.9
 02 10 2013  16 08  -21.0376 26003.1 -03507.2 -07.6814 26238.6
 02 10 2013  16 09  -21.0393 26003.4 -03507.0 -07.6810 26238.8
 02 10 2013  16 10  -21.0392 26003.5 -03506.6 -07.6801 26238.9
 02 10 2013  16 11  -21.0362 26004.1 -03506.5 -07.6796 26239.4
 02 10 2013  16 12  -21.0389 26007.2 -03508.0 -07.6821 26242.7
 02 10 2013  16 13  -21.0392 26009.1 -03508.4 -07.6824 26244.6
 02 10 2013  16 14  -21.0400 26010.4 -03508.4 -07.6820 26245.9
 02 10 2013  16 15  -21.0392 26009.7 -03507.5 -07.6801 26245.2
 02 10 2013  16 16  -21.0381 26008.9 -03506.6 -07.6784 26244.2
 02 10 2013  16 17  -21.0381 26008.0 -03506.2 -07.6778 26243.3
 02 10 2013  16 18  -21.0374 26007.3 -03505.9 -07.6775 26242.5
 02 10 2013  16 19  -21.0375 26007.2 -03506.2 -07.6781 26242.5
 02 10 2013  16 20  -21.0372 26007.4 -03506.5 -07.6786 26242.7
 02 10 2013  16 21  -21.0379 26007.2 -03506.5 -07.6789 26242.5
 02 10 2013  16 22  -21.0376 26005.2 -03505.7 -07.6775 26240.4
 02 10 2013  16 23  -21.0367 26003.4 -03505.1 -07.6768 26238.6
 02 10 2013  16 24  -21.0373 26003.0 -03505.6 -07.6781 26238.3
 02 10 2013  16 25  -21.0378 26003.5 -03506.5 -07.6799 26238.8
 02 10 2013  16 26  -21.0383 26003.9 -03507.2 -07.6812 26239.3
 02 10 2013  16 27  -21.0389 26004.5 -03507.7 -07.6821 26240.0
 02 10 2013  16 28  -21.0397 26005.9 -03508.4 -07.6832 26241.5
 02 10 2013  16 29  -21.0412 26006.2 -03508.5 -07.6833 26241.8
 02 10 2013  16 30  -21.0414 26006.9 -03508.5 -07.6832 26242.5
 02 10 2013  16 31  -21.0417 26006.8 -03508.4 -07.6829 26242.4
 02 10 2013  16 32  -21.0421 26006.6 -03508.1 -07.6825 26242.1
 02 10 2013  16 33  -21.0421 26006.1 -03507.8 -07.6819 26241.6
 02 10 2013  16 34  -21.0434 26005.6 -03507.6 -07.6815 26241.1
 02 10 2013  16 35  -21.0412 26002.6 -03506.3 -07.6796 26237.9
 02 10 2013  16 36  -21.0386 26000.4 -03505.7 -07.6791 26235.6
 02 10 2013  16 37  -21.0401 26000.7 -03506.9 -07.6814 26236.1
 02 10 2013  16 38  -21.0411 26001.4 -03507.7 -07.6831 26236.9
 02 10 2013  16 39  -21.0429 26002.2 -03508.3 -07.6841 26237.8
 02 10 2013  16 40  -21.0449 26003.2 -03508.6 -07.6845 26238.8
 02 10 2013  16 41  -21.0460 26003.4 -03508.5 -07.6841 26239.0
 02 10 2013  16 42  -21.0473 26002.8 -03508.1 -07.6835 26238.3
 02 10 2013  16 43  -21.0477 26000.9 -03507.2 -07.6821 26236.3
 02 10 2013  16 44  -21.0475 25999.5 -03506.7 -07.6815 26234.9
 02 10 2013  16 45  -21.0478 25998.1 -03506.5 -07.6814 26233.5
 02 10 2013  16 46  -21.0485 25997.8 -03506.7 -07.6820 26233.2
 02 10 2013  16 47  -21.0507 25999.1 -03507.5 -07.6832 26234.6
 02 10 2013  16 48  -21.0537 25999.7 -03507.7 -07.6834 26235.2
 02 10 2013  16 49  -21.0544 25999.3 -03506.9 -07.6820 26234.7
 02 10 2013  16 50  -21.0545 25997.8 -03505.9 -07.6802 26233.1
 02 10 2013  16 51  -21.0535 25995.9 -03504.9 -07.6785 26231.1
 02 10 2013  16 52  -21.0539 25995.2 -03504.7 -07.6784 26230.4
 02 10 2013  16 53  -21.0545 25994.8 -03504.7 -07.6785 26230.0
 02 10 2013  16 54  -21.0555 25994.6 -03504.7 -07.6786 26229.8
 02 10 2013  16 55  -21.0566 25994.5 -03504.8 -07.6787 26229.7
 02 10 2013  16 56  -21.0567 25994.1 -03504.5 -07.6782 26229.2
 02 10 2013  16 57  -21.0573 25993.7 -03504.3 -07.6779 26228.9
 02 10 2013  16 58  -21.0579 25993.4 -03504.1 -07.6777 26228.5
 02 10 2013  16 59  -21.0587 25994.3 -03504.5 -07.6782 26229.4
 02 10 2013  17 00  -21.0592 25995.2 -03504.8 -07.6786 26230.4
 02 10 2013  17 01  -21.0597 25994.7 -03504.3 -07.6778 26229.8
 02 10 2013  17 02  -21.0595 25994.6 -03504.1 -07.6773 26229.7
 02 10 2013  17 03  -21.0606 25995.1 -03504.3 -07.6775 26230.2
 02 10 2013  17 04  -21.0612 25996.1 -03504.5 -07.6777 26231.2
 02 10 2013  17 05  -21.0622 25996.9 -03504.6 -07.6776 26232.0
 02 10 2013  17 06  -21.0628 25997.8 -03504.6 -07.6774 26233.0
 02 10 2013  17 07  -21.0630 25998.0 -03504.4 -07.6768 26233.2
 02 10 2013  17 08  -21.0630 25998.1 -03504.1 -07.6761 26233.2
 02 10 2013  17 09  -21.0629 25998.1 -03503.7 -07.6753 26233.1
 02 10 2013  17 10  -21.0626 25998.9 -03503.7 -07.6752 26233.9
 02 10 2013  17 11  -21.0645 26000.1 -03504.1 -07.6756 26235.1
 02 10 2013  17 12  -21.0679 26001.0 -03504.0 -07.6752 26236.1
 02 10 2013  17 13  -21.0703 26000.4 -03503.0 -07.6731 26235.3
 02 10 2013  17 14  -21.0697 25998.5 -03501.4 -07.6702 26233.2
 02 10 2013  17 15  -21.0677 25997.1 -03500.5 -07.6688 26231.7
 02 10 2013  17 16  -21.0670 25997.5 -03500.9 -07.6695 26232.2
 02 10 2013  17 17  -21.0676 25998.4 -03501.6 -07.6706 26233.1
 02 10 2013  17 18  -21.0673 25998.7 -03501.7 -07.6709 26233.5
 02 10 2013  17 19  -21.0670 25998.2 -03501.4 -07.6703 26232.9
 02 10 2013  17 20  -21.0668 25996.7 -03500.5 -07.6689 26231.3
 02 10 2013  17 21  -21.0668 25996.1 -03500.2 -07.6684 26230.7
 02 10 2013  17 22  -21.0677 25996.8 -03500.6 -07.6690 26231.4
 02 10 2013  17 23  -21.0686 25997.8 -03501.0 -07.6695 26232.5
 02 10 2013  17 24  -21.0686 25998.0 -03501.0 -07.6695 26232.6
 02 10 2013  17 25  -21.0691 25997.8 -03500.8 -07.6693 26232.4
 02 10 2013  17 26  -21.0692 25997.5 -03500.6 -07.6688 26232.1
 02 10 2013  17 27  -21.0696 25997.2 -03500.3 -07.6683 26231.8
 02 10 2013  17 28  -21.0702 25997.1 -03500.3 -07.6682 26231.7
 02 10 2013  17 29  -21.0702 25997.3 -03500.4 -07.6684 26231.9
 02 10 2013  17 30  -21.0706 25997.6 -03500.5 -07.6685 26232.2
 02 10 2013  17 31  -21.0712 25997.5 -03500.4 -07.6684 26232.1
 02 10 2013  17 32  -21.0717 25997.1 -03500.2 -07.6680 26231.6
 02 10 2013  17 33  -21.0720 25996.7 -03499.9 -07.6676 26231.2
 02 10 2013  17 34  -21.0731 25996.3 -03499.8 -07.6675 26230.8
 02 10 2013  17 35  -21.0742 25995.8 -03499.5 -07.6670 26230.3
 02 10 2013  17 36  -21.0741 25995.1 -03499.1 -07.6663 26229.6
 02 10 2013  17 37  -21.0736 25995.8 -03499.4 -07.6667 26230.3
 02 10 2013  17 38  -21.0742 25997.7 -03500.3 -07.6680 26232.3
 02 10 2013  17 39  -21.0756 25998.6 -03500.4 -07.6681 26233.2
 02 10 2013  17 40  -21.0748 25998.6 -03499.9 -07.6670 26233.1
 02 10 2013  17 41  -21.0743 25999.2 -03499.9 -07.6668 26233.7
 02 10 2013  17 42  -21.0756 26000.3 -03500.2 -07.6671 26234.9
 02 10 2013  17 43  -21.0763 26001.2 -03500.2 -07.6668 26235.7
 02 10 2013  17 44  -21.0775 26002.3 -03500.1 -07.6663 26236.8
 02 10 2013  17 45  -21.0785 26002.3 -03499.6 -07.6652 26236.7
 02 10 2013  17 46  -21.0786 26001.7 -03498.8 -07.6637 26236.0
 02 10 2013  17 47  -21.0791 26001.2 -03498.2 -07.6625 26235.5
 02 10 2013  17 48  -21.0790 26001.1 -03497.8 -07.6617 26235.3
 02 10 2013  17 49  -21.0789 26001.7 -03497.8 -07.6616 26235.9
 02 10 2013  17 50  -21.0790 26002.5 -03497.9 -07.6615 26236.7
 02 10 2013  17 51  -21.0793 26003.4 -03498.0 -07.6614 26237.6
 02 10 2013  17 52  -21.0809 26004.0 -03497.8 -07.6608 26238.1
 02 10 2013  17 53  -21.0807 26003.1 -03496.9 -07.6591 26237.2
 02 10 2013  17 54  -21.0806 26002.6 -03496.2 -07.6579 26236.6
 02 10 2013  17 55  -21.0807 26002.3 -03495.9 -07.6574 26236.3
 02 10 2013  17 56  -21.0803 26002.2 -03495.8 -07.6571 26236.1
 02 10 2013  17 57  -21.0806 26002.2 -03495.7 -07.6569 26236.1
 02 10 2013  17 58  -21.0808 26002.3 -03495.6 -07.6566 26236.2
 02 10 2013  17 59  -21.0807 26002.5 -03495.6 -07.6565 26236.4
 02 10 2013  18 00  -21.0810 26003.1 -03495.7 -07.6565 26237.0
 02 10 2013  18 01  -21.0812 26003.1 -03495.6 -07.6563 26237.0
 02 10 2013  18 02  -21.0817 26002.8 -03495.3 -07.6557 26236.7
 02 10 2013  18 03  -21.0826 26002.6 -03495.0 -07.6552 26236.4
 02 10 2013  18 04  -21.0832 26002.3 -03494.7 -07.6546 26236.1
 02 10 2013  18 05  -21.0837 26002.5 -03494.5 -07.6541 26236.3
 02 10 2013  18 06  -21.0841 26003.0 -03494.5 -07.6539 26236.8
 02 10 2013  18 07  -21.0847 26003.5 -03494.4 -07.6537 26237.2
 02 10 2013  18 08  -21.0854 26003.5 -03494.3 -07.6535 26237.2
 02 10 2013  18 09  -21.0860 26003.2 -03493.9 -07.6526 26236.9
 02 10 2013  18 10  -21.0869 26002.2 -03493.1 -07.6513 26235.8
 02 10 2013  18 11  -21.0861 26000.6 -03492.0 -07.6493 26234.0
 02 10 2013  18 12  -21.0852 26000.0 -03491.6 -07.6485 26233.3
 02 10 2013  18 13  -21.0848 26000.6 -03491.8 -07.6489 26234.1
 02 10 2013  18 14  -21.0852 26001.6 -03492.2 -07.6495 26235.1
 02 10 2013  18 15  -21.0851 26002.1 -03492.3 -07.6494 26235.6
 02 10 2013  18 16  -21.0855 26002.6 -03492.2 -07.6492 26236.1
 02 10 2013  18 17  -21.0855 26002.6 -03491.9 -07.6485 26236.0
 02 10 2013  18 18  -21.0852 26002.9 -03491.7 -07.6480 26236.3
 02 10 2013  18 19  -21.0846 26003.3 -03491.6 -07.6477 26236.7
 02 10 2013  18 20  -21.0845 26004.3 -03491.8 -07.6478 26237.7
 02 10 2013  18 21  -21.0850 26005.2 -03492.0 -07.6479 26238.6
 02 10 2013  18 22  -21.0847 26005.4 -03491.6 -07.6471 26238.7
 02 10 2013  18 23  -21.0839 26005.3 -03491.1 -07.6460 26238.6
 02 10 2013  18 24  -21.0841 26006.2 -03491.1 -07.6458 26239.5
 02 10 2013  18 25  -21.0853 26006.9 -03491.2 -07.6457 26240.2
 02 10 2013  18 26  -21.0859 26007.3 -03490.9 -07.6450 26240.5
 02 10 2013  18 27  -21.0856 26007.8 -03490.7 -07.6444 26241.0
 02 10 2013  18 28  -21.0880 26008.4 -03490.6 -07.6441 26241.5
 02 10 2013  18 29  -21.0890 26006.9 -03489.4 -07.6418 26239.9
 02 10 2013  18 30  -21.0891 26005.2 -03488.0 -07.6394 26238.0
 02 10 2013  18 31  -21.0881 26003.9 -03487.0 -07.6376 26236.6
 02 10 2013  18 32  -21.0877 26003.1 -03486.4 -07.6365 26235.7
 02 10 2013  18 33  -21.0877 26003.6 -03486.5 -07.6365 26236.3
 02 10 2013  18 34  -21.0881 26004.9 -03487.0 -07.6372 26237.7
 02 10 2013  18 35  -21.0881 26005.8 -03487.1 -07.6372 26238.5
 02 10 2013  18 36  -21.0884 26006.1 -03486.9 -07.6366 26238.8
 02 10 2013  18 37  -21.0892 26006.1 -03486.4 -07.6356 26238.7
 02 10 2013  18 38  -21.0895 26005.8 -03485.8 -07.6344 26238.3
 02 10 2013  18 39  -21.0897 26005.8 -03485.4 -07.6335 26238.3
 02 10 2013  18 40  -21.0900 26006.0 -03485.2 -07.6330 26238.5
 02 10 2013  18 41  -21.0904 26005.9 -03484.8 -07.6321 26238.3
 02 10 2013  18 42  -21.0907 26005.4 -03484.2 -07.6311 26237.8
 02 10 2013  18 43  -21.0909 26005.5 -03484.0 -07.6305 26237.8
 02 10 2013  18 44  -21.0911 26005.5 -03483.6 -07.6297 26237.8
 02 10 2013  18 45  -21.0911 26005.5 -03483.3 -07.6291 26237.8
 02 10 2013  18 46  -21.0913 26005.1 -03482.9 -07.6283 26237.3
 02 10 2013  18 47  -21.0912 26004.6 -03482.4 -07.6274 26236.7
 02 10 2013  18 48  -21.0913 26004.0 -03482.0 -07.6266 26236.1
 02 10 2013  18 49  -21.0913 26003.4 -03481.5 -07.6258 26235.5
 02 10 2013  18 50  -21.0916 26003.2 -03481.2 -07.6251 26235.1
 02 10 2013  18 51  -21.0917 26002.5 -03480.7 -07.6242 26234.5
 02 10 2013  18 52  -21.0919 26002.1 -03480.2 -07.6233 26233.9
 02 10 2013  18 53  -21.0913 26001.0 -03479.5 -07.6221 26232.8
 02 10 2013  18 54  -21.0909 26000.4 -03479.0 -07.6211 26232.1
 02 10 2013  18 55  -21.0909 26000.1 -03478.7 -07.6206 26231.8
 02 10 2013  18 56  -21.0906 25999.8 -03478.5 -07.6202 26231.5
 02 10 2013  18 57  -21.0906 25999.7 -03478.3 -07.6200 26231.4
 02 10 2013  18 58  -21.0907 25999.6 -03478.3 -07.6198 26231.3
 02 10 2013  18 59  -21.0885 26000.1 -03478.2 -07.6196 26231.7
 02 10 2013  19 00  -21.0860 26003.8 -03479.8 -07.6220 26235.6
 02 10 2013  19 01  -21.0872 26008.8 -03482.5 -07.6264 26240.9
 02 10 2013  19 02  -21.0903 26011.1 -03483.5 -07.6278 26243.3
 02 10 2013  19 03  -21.0921 26009.6 -03482.1 -07.6254 26241.6
 02 10 2013  19 04  -21.0925 26005.9 -03479.6 -07.6210 26237.7
 02 10 2013  19 05  -21.0910 26001.7 -03476.9 -07.6163 26233.1
 02 10 2013  19 06  -21.0899 25999.3 -03475.6 -07.6142 26230.6
 02 10 2013  19 07  -21.0894 25998.1 -03475.2 -07.6137 26229.3
 02 10 2013  19 08  -21.0887 25997.4 -03475.2 -07.6139 26228.6
 02 10 2013  19 09  -21.0884 25996.3 -03475.0 -07.6138 26227.5
 02 10 2013  19 10  -21.0880 25995.1 -03474.6 -07.6133 26226.3
 02 10 2013  19 11  -21.0869 25994.1 -03474.2 -07.6127 26225.2
 02 10 2013  19 12  -21.0854 25993.5 -03474.1 -07.6126 26224.6
 02 10 2013  19 13  -21.0837 25993.9 -03474.5 -07.6133 26225.0
 02 10 2013  19 14  -21.0825 25995.0 -03475.3 -07.6147 26226.2
 02 10 2013  19 15  -21.0819 25996.1 -03476.0 -07.6161 26227.5
 02 10 2013  19 16  -21.0817 25996.6 -03476.4 -07.6168 26228.0
 02 10 2013  19 17  -21.0814 25996.1 -03476.2 -07.6164 26227.5
 02 10 2013  19 18  -21.0806 25995.1 -03475.6 -07.6155 26226.4
 02 10 2013  19 19  -21.0783 25994.0 -03475.1 -07.6146 26225.2
 02 10 2013  19 20  -21.0770 25994.3 -03475.3 -07.6150 26225.6
 02 10 2013  19 21  -21.0765 25995.6 -03476.2 -07.6165 26227.0
 02 10 2013  19 22  -21.0766 25996.8 -03476.9 -07.6177 26228.3
 02 10 2013  19 23  -21.0775 25996.8 -03477.0 -07.6179 26228.3
 02 10 2013  19 24  -21.0772 25993.0 -03475.1 -07.6149 26224.3
 02 10 2013  19 25  -21.0752 25989.5 -03473.1 -07.6116 26220.5
 02 10 2013  19 26  -21.0740 25992.1 -03474.2 -07.6131 26223.2
 02 10 2013  19 27  -21.0736 25997.3 -03477.2 -07.6181 26228.9
 02 10 2013  19 28  -21.0737 26000.2 -03478.9 -07.6210 26231.9
 02 10 2013  19 29  -21.0749 26002.0 -03479.8 -07.6224 26233.8
 02 10 2013  19 30  -21.0757 26000.6 -03478.9 -07.6210 26232.3
 02 10 2013  19 31  -21.0759 25998.7 -03477.5 -07.6186 26230.2
 02 10 2013  19 32  -21.0760 25997.4 -03476.6 -07.6169 26228.9
 02 10 2013  19 33  -21.0763 25997.2 -03476.3 -07.6163 26228.6
 02 10 2013  19 34  -21.0765 25997.1 -03476.2 -07.6162 26228.5
 02 10 2013  19 35  -21.0781 25996.8 -03476.2 -07.6161 26228.2
 02 10 2013  19 36  -21.0802 25994.6 -03475.2 -07.6147 26225.9
 02 10 2013  19 37  -21.0797 25991.4 -03473.5 -07.6120 26222.5
 02 10 2013  19 38  -21.0783 25989.1 -03472.3 -07.6101 26220.1
 02 10 2013  19 39  -21.0771 25988.5 -03472.2 -07.6100 26219.5
 02 10 2013  19 40  -21.0763 25988.7 -03472.7 -07.6109 26219.7
 02 10 2013  19 41  -21.0766 25988.5 -03473.0 -07.6116 26219.5
 02 10 2013  19 42  -21.0785 25987.0 -03472.6 -07.6112 26218.0
 02 10 2013  19 43  -21.0779 25984.8 -03471.5 -07.6094 26215.7
 02 10 2013  19 44  -21.0761 25983.7 -03471.0 -07.6087 26214.5
 02 10 2013  19 45  -21.0739 25983.4 -03471.0 -07.6089 26214.3
 02 10 2013  19 46  -21.0724 25983.8 -03471.6 -07.6100 26214.7
 02 10 2013  19 47  -21.0715 25983.8 -03472.0 -07.6108 26214.8
 02 10 2013  19 48  -21.0707 25984.2 -03472.5 -07.6117 26215.2
 02 10 2013  19 49  -21.0701 25984.5 -03472.9 -07.6125 26215.6
 02 10 2013  19 50  -21.0691 25985.0 -03473.2 -07.6131 26216.1
 02 10 2013  19 51  -21.0694 25985.2 -03473.6 -07.6138 26216.4
 02 10 2013  19 52  -21.0687 25985.0 -03473.5 -07.6138 26216.1
 02 10 2013  19 53  -21.0688 25984.8 -03473.5 -07.6139 26216.0
 02 10 2013  19 54  -21.0685 25984.1 -03473.3 -07.6136 26215.2
 02 10 2013  19 55  -21.0676 25983.5 -03473.0 -07.6132 26214.5
 02 10 2013  19 56  -21.0669 25983.3 -03473.2 -07.6135 26214.4
 02 10 2013  19 57  -21.0680 25983.0 -03473.2 -07.6137 26214.1
 02 10 2013  19 58  -21.0679 25983.0 -03473.5 -07.6143 26214.1
 02 10 2013  19 59  -21.0682 25982.9 -03473.7 -07.6147 26214.1
 02 10 2013  20 00  -21.0682 25982.9 -03473.8 -07.6151 26214.1
 02 10 2013  20 01  -21.0679 25982.4 -03473.7 -07.6150 26213.6
 02 10 2013  20 02  -21.0677 25982.0 -03473.6 -07.6149 26213.2
 02 10 2013  20 03  -21.0674 25982.1 -03473.8 -07.6153 26213.3
 02 10 2013  20 04  -21.0671 25982.1 -03474.1 -07.6158 26213.3
 02 10 2013  20 05  -21.0658 25982.1 -03474.2 -07.6161 26213.4
 02 10 2013  20 06  -21.0646 25981.9 -03474.3 -07.6163 26213.1
 02 10 2013  20 07  -21.0640 25981.6 -03474.4 -07.6166 26212.9
 02 10 2013  20 08  -21.0635 25981.1 -03474.4 -07.6168 26212.4
 02 10 2013  20 09  -21.0627 25981.0 -03474.6 -07.6172 26212.3
 02 10 2013  20 10  -21.0623 25981.0 -03475.0 -07.6182 26212.3
 02 10 2013  20 11  -21.0619 25979.9 -03474.8 -07.6180 26211.3
 02 10 2013  20 12  -21.0614 25979.7 -03474.9 -07.6183 26211.0
 02 10 2013  20 13  -21.0608 25979.2 -03475.0 -07.6187 26210.6
 02 10 2013  20 14  -21.0605 25978.5 -03474.9 -07.6186 26209.8
 02 10 2013  20 15  -21.0601 25977.9 -03474.8 -07.6187 26209.3
 02 10 2013  20 16  -21.0595 25977.9 -03475.1 -07.6192 26209.3
 02 10 2013  20 17  -21.0591 25977.5 -03475.2 -07.6196 26208.9
 02 10 2013  20 18  -21.0588 25977.2 -03475.4 -07.6202 26208.6
 02 10 2013  20 19  -21.0584 25976.5 -03475.4 -07.6204 26208.0
 02 10 2013  20 20  -21.0582 25976.1 -03475.5 -07.6208 26207.6
 02 10 2013  20 21  -21.0574 25976.2 -03475.9 -07.6215 26207.7
 02 10 2013  20 22  -21.0563 25976.8 -03476.4 -07.6224 26208.3
 02 10 2013  20 23  -21.0561 25976.9 -03476.9 -07.6234 26208.6
 02 10 2013  20 24  -21.0563 25977.1 -03477.3 -07.6243 26208.8
 02 10 2013  20 25  -21.0572 25977.7 -03477.9 -07.6255 26209.4
 02 10 2013  20 26  -21.0582 25977.5 -03478.1 -07.6260 26209.3
 02 10 2013  20 27  -21.0581 25977.3 -03478.1 -07.6260 26209.1
 02 10 2013  20 28  -21.0585 25977.1 -03478.2 -07.6263 26208.9
 02 10 2013  20 29  -21.0584 25976.5 -03478.2 -07.6263 26208.3
 02 10 2013  20 30  -21.0580 25975.7 -03478.0 -07.6261 26207.5
 02 10 2013  20 31  -21.0578 25974.4 -03477.6 -07.6257 26206.2
 02 10 2013  20 32  -21.0574 25973.2 -03477.2 -07.6252 26205.0
 02 10 2013  20 33  -21.0567 25972.8 -03477.3 -07.6256 26204.6
 02 10 2013  20 34  -21.0553 25972.7 -03477.6 -07.6262 26204.5
 02 10 2013  20 35  -21.0536 25973.0 -03478.0 -07.6271 26204.8
 02 10 2013  20 36  -21.0518 25973.7 -03478.6 -07.6281 26205.6
 02 10 2013  20 37  -21.0506 25975.3 -03479.7 -07.6300 26207.3
 02 10 2013  20 38  -21.0501 25976.5 -03480.6 -07.6317 26208.7
 02 10 2013  20 39  -21.0498 25977.7 -03481.5 -07.6332 26210.0
 02 10 2013  20 40  -21.0495 25978.7 -03482.2 -07.6345 26211.1
 02 10 2013  20 41  -21.0498 25979.7 -03482.9 -07.6357 26212.1
 02 10 2013  20 42  -21.0501 25980.6 -03483.6 -07.6369 26213.1
 02 10 2013  20 43  -21.0506 25981.2 -03484.1 -07.6378 26213.8
 02 10 2013  20 44  -21.0509 25981.9 -03484.6 -07.6386 26214.6
 02 10 2013  20 45  -21.0509 25982.7 -03485.0 -07.6394 26215.4
 02 10 2013  20 46  -21.0510 25983.3 -03485.4 -07.6400 26216.0
 02 10 2013  20 47  -21.0508 25983.9 -03485.7 -07.6405 26216.6
 02 10 2013  20 48  -21.0504 25984.8 -03486.2 -07.6412 26217.6
 02 10 2013  20 49  -21.0502 25985.6 -03486.6 -07.6420 26218.5
 02 10 2013  20 50  -21.0502 25986.5 -03487.1 -07.6427 26219.4
 02 10 2013  20 51  -21.0503 25987.6 -03487.6 -07.6436 26220.6
 02 10 2013  20 52  -21.0507 25988.4 -03488.1 -07.6443 26221.4
 02 10 2013  20 53  -21.0513 25988.9 -03488.4 -07.6448 26222.0
 02 10 2013  20 54  -21.0521 25989.1 -03488.4 -07.6449 26222.1
 02 10 2013  20 55  -21.0529 25988.8 -03488.2 -07.6446 26221.9
 02 10 2013  20 56  -21.0531 25988.9 -03488.2 -07.6444 26221.9
 02 10 2013  20 57  -21.0534 25989.0 -03488.2 -07.6444 26222.0
 02 10 2013  20 58  -21.0534 25988.9 -03488.1 -07.6443 26222.0
 02 10 2013  20 59  -21.0533 25988.7 -03488.0 -07.6441 26221.8
 02 10 2013  21 00  -21.0534 25988.4 -03487.9 -07.6439 26221.4
 02 10 2013  21 01  -21.0533 25988.0 -03487.7 -07.6436 26221.0
 02 10 2013  21 02  -21.0532 25987.3 -03487.4 -07.6433 26220.3
 02 10 2013  21 03  -21.0531 25986.6 -03487.2 -07.6430 26219.6
 02 10 2013  21 04  -21.0531 25985.9 -03487.0 -07.6427 26218.9
 02 10 2013  21 05  -21.0532 25985.1 -03486.7 -07.6423 26217.9
 02 10 2013  21 06  -21.0534 25984.1 -03486.4 -07.6420 26216.9
 02 10 2013  21 07  -21.0535 25983.0 -03486.1 -07.6417 26215.8
 02 10 2013  21 08  -21.0536 25982.1 -03485.8 -07.6412 26214.9
 02 10 2013  21 09  -21.0537 25981.4 -03485.7 -07.6412 26214.2
 02 10 2013  21 10  -21.0535 25980.7 -03485.5 -07.6410 26213.5
 02 10 2013  21 11  -21.0533 25980.2 -03485.4 -07.6410 26213.0
 02 10 2013  21 12  -21.0535 25979.7 -03485.4 -07.6411 26212.4
 02 10 2013  21 13  -21.0540 25978.9 -03485.3 -07.6411 26211.6
 02 10 2013  21 14  -21.0547 25978.0 -03485.1 -07.6408 26210.7
 02 10 2013  21 15  -21.0552 25977.4 -03485.0 -07.6408 26210.1
 02 10 2013  21 16  -21.0552 25976.9 -03484.8 -07.6406 26209.6
 02 10 2013  21 17  -21.0545 25976.7 -03485.0 -07.6410 26209.4
 02 10 2013  21 18  -21.0537 25976.5 -03485.1 -07.6414 26209.2
 02 10 2013  21 19  -21.0531 25976.3 -03485.2 -07.6417 26209.0
 02 10 2013  21 20  -21.0527 25975.7 -03485.2 -07.6418 26208.5
 02 10 2013  21 21  -21.0529 25974.8 -03485.0 -07.6416 26207.6
 02 10 2013  21 22  -21.0536 25974.0 -03484.8 -07.6415 26206.7
 02 10 2013  21 23  -21.0545 25973.4 -03484.8 -07.6416 26206.1
 02 10 2013  21 24  -21.0554 25973.0 -03484.8 -07.6417 26205.8
 02 10 2013  21 25  -21.0563 25972.6 -03484.8 -07.6419 26205.3
 02 10 2013  21 26  -21.0572 25971.9 -03484.7 -07.6418 26204.6
 02 10 2013  21 27  -21.0579 25971.2 -03484.5 -07.6416 26203.9
 02 10 2013  21 28  -21.0585 25970.5 -03484.3 -07.6413 26203.2
 02 10 2013  21 29  -21.0594 25970.0 -03484.2 -07.6413 26202.7
 02 10 2013  21 30  -21.0602 25969.1 -03483.9 -07.6410 26201.7
 02 10 2013  21 31  -21.0612 25968.1 -03483.6 -07.6406 26200.7
 02 10 2013  21 32  -21.0620 25967.5 -03483.4 -07.6403 26200.1
 02 10 2013  21 33  -21.0627 25967.3 -03483.5 -07.6406 26199.9
 02 10 2013  21 34  -21.0635 25967.0 -03483.5 -07.6407 26199.6
 02 10 2013  21 35  -21.0647 25966.6 -03483.5 -07.6408 26199.2
 02 10 2013  21 36  -21.0654 25966.3 -03483.5 -07.6408 26198.9
 02 10 2013  21 37  -21.0656 25966.0 -03483.5 -07.6408 26198.6
 02 10 2013  21 38  -21.0653 25965.8 -03483.5 -07.6409 26198.5
 02 10 2013  21 39  -21.0648 25965.9 -03483.6 -07.6412 26198.6
 02 10 2013  21 40  -21.0645 25966.0 -03483.8 -07.6415 26198.7
 02 10 2013  21 41  -21.0646 25966.1 -03484.0 -07.6419 26198.8
 02 10 2013  21 42  -21.0653 25966.1 -03484.2 -07.6424 26198.9
 02 10 2013  21 43  -21.0659 25966.0 -03484.2 -07.6425 26198.7
 02 10 2013  21 44  -21.0666 25966.0 -03484.3 -07.6427 26198.7
 02 10 2013  21 45  -21.0671 25966.3 -03484.6 -07.6432 26199.0
 02 10 2013  21 46  -21.0670 25966.5 -03484.7 -07.6435 26199.2
 02 10 2013  21 47  -21.0671 25967.1 -03485.1 -07.6440 26200.0
 02 10 2013  21 48  -21.0671 25967.9 -03485.5 -07.6447 26200.8
 02 10 2013  21 49  -21.0673 25968.1 -03485.7 -07.6450 26201.0
 02 10 2013  21 50  -21.0678 25967.9 -03485.7 -07.6450 26200.8
 02 10 2013  21 51  -21.0682 25967.5 -03485.4 -07.6447 26200.3
 02 10 2013  21 52  -21.0688 25967.1 -03485.2 -07.6443 26200.0
 02 10 2013  21 53  -21.0694 25966.7 -03485.0 -07.6439 26199.5
 02 10 2013  21 54  -21.0699 25966.0 -03484.7 -07.6435 26198.8
 02 10 2013  21 55  -21.0704 25965.4 -03484.3 -07.6429 26198.2
 02 10 2013  21 56  -21.0706 25964.9 -03484.1 -07.6425 26197.6
 02 10 2013  21 57  -21.0705 25964.5 -03483.9 -07.6422 26197.2
 02 10 2013  21 58  -21.0699 25964.5 -03484.0 -07.6424 26197.2
 02 10 2013  21 59  -21.0693 25964.4 -03484.0 -07.6425 26197.1
 02 10 2013  22 00  -21.0687 25964.3 -03484.0 -07.6426 26197.0
 02 10 2013  22 01  -21.0678 25963.8 -03483.9 -07.6425 26196.5
 02 10 2013  22 02  -21.0670 25963.5 -03483.8 -07.6424 26196.2
 02 10 2013  22 03  -21.0663 25963.5 -03484.0 -07.6427 26196.2
 02 10 2013  22 04  -21.0660 25963.6 -03484.2 -07.6432 26196.4
 02 10 2013  22 05  -21.0660 25963.8 -03484.5 -07.6438 26196.6
 02 10 2013  22 06  -21.0662 25964.1 -03484.8 -07.6443 26196.9
 02 10 2013  22 07  -21.0664 25964.5 -03485.1 -07.6449 26197.3
 02 10 2013  22 08  -21.0665 25964.7 -03485.4 -07.6454 26197.6
 02 10 2013  22 09  -21.0669 25965.1 -03485.6 -07.6458 26198.0
 02 10 2013  22 10  -21.0673 25965.4 -03485.9 -07.6462 26198.4
 02 10 2013  22 11  -21.0679 25965.6 -03486.0 -07.6465 26198.6
 02 10 2013  22 12  -21.0682 25965.8 -03486.1 -07.6466 26198.7
 02 10 2013  22 13  -21.0688 25965.7 -03486.0 -07.6465 26198.7
 02 10 2013  22 14  -21.0691 25965.6 -03485.9 -07.6464 26198.5
 02 10 2013  22 15  -21.0690 25965.6 -03485.9 -07.6463 26198.5
 02 10 2013  22 16  -21.0688 25966.0 -03486.0 -07.6465 26198.9
 02 10 2013  22 17  -21.0689 25966.0 -03486.1 -07.6466 26199.0
 02 10 2013  22 18  -21.0695 25965.6 -03485.9 -07.6463 26198.5
 02 10 2013  22 19  -21.0702 25965.4 -03485.8 -07.6462 26198.3
 02 10 2013  22 20  -21.0709 25965.8 -03486.0 -07.6464 26198.8
 02 10 2013  22 21  -21.0715 25966.3 -03486.2 -07.6468 26199.3
 02 10 2013  22 22  -21.0721 25966.4 -03486.3 -07.6469 26199.3
 02 10 2013  22 23  -21.0725 25966.4 -03486.3 -07.6470 26199.4
 02 10 2013  22 24  -21.0726 25966.2 -03486.2 -07.6467 26199.2
 02 10 2013  22 25  -21.0726 25965.6 -03485.8 -07.6460 26198.6
 02 10 2013  22 26  -21.0728 25965.4 -03485.7 -07.6458 26198.4
 02 10 2013  22 27  -21.0729 25965.4 -03485.6 -07.6457 26198.3
 02 10 2013  22 28  -21.0723 25966.1 -03485.9 -07.6462 26199.1
 02 10 2013  22 29  -21.0717 25967.0 -03486.4 -07.6468 26200.0
 02 10 2013  22 30  -21.0713 25967.5 -03486.7 -07.6475 26200.6
 02 10 2013  22 31  -21.0710 25967.9 -03486.9 -07.6478 26201.0
 02 10 2013  22 32  -21.0707 25968.7 -03487.2 -07.6483 26201.8
 02 10 2013  22 33  -21.0707 25968.6 -03487.3 -07.6484 26201.7
 02 10 2013  22 34  -21.0701 25969.9 -03487.7 -07.6490 26203.0
 02 10 2013  22 35  -21.0698 25970.6 -03488.2 -07.6498 26203.8
 02 10 2013  22 36  -21.0695 25971.6 -03488.5 -07.6503 26204.8
 02 10 2013  22 37  -21.0694 25973.1 -03489.2 -07.6513 26206.4
 02 10 2013  22 38  -21.0699 25973.5 -03489.4 -07.6516 26206.8
 02 10 2013  22 39  -21.0704 25973.8 -03489.5 -07.6517 26207.2
 02 10 2013  22 40  -21.0706 25973.3 -03489.1 -07.6509 26206.6
 02 10 2013  22 41  -21.0704 25973.1 -03488.8 -07.6503 26206.4
 02 10 2013  22 42  -21.0703 25974.7 -03489.4 -07.6511 26208.0
 02 10 2013  22 43  -21.0708 25975.3 -03489.7 -07.6517 26208.7
 02 10 2013  22 44  -21.0720 25975.1 -03489.6 -07.6516 26208.4
 02 10 2013  22 45  -21.0727 25974.3 -03489.1 -07.6506 26207.6
 02 10 2013  22 46  -21.0727 25973.6 -03488.4 -07.6494 26206.8
 02 10 2013  22 47  -21.0724 25972.9 -03487.9 -07.6485 26206.1
 02 10 2013  22 48  -21.0715 25972.5 -03487.5 -07.6478 26205.6
 02 10 2013  22 49  -21.0704 25972.5 -03487.4 -07.6476 26205.6
 02 10 2013  22 50  -21.0690 25973.7 -03487.9 -07.6483 26206.8
 02 10 2013  22 51  -21.0680 25974.2 -03488.3 -07.6489 26207.4
 02 10 2013  22 52  -21.0663 25976.3 -03489.2 -07.6503 26209.6
 02 10 2013  22 53  -21.0657 25977.0 -03489.7 -07.6513 26210.3
 02 10 2013  22 54  -21.0644 25977.3 -03489.9 -07.6514 26210.7
 02 10 2013  22 55  -21.0630 25978.0 -03490.1 -07.6518 26211.4
 02 10 2013  22 56  -21.0618 25978.8 -03490.5 -07.6523 26212.3
 02 10 2013  22 57  -21.0610 25979.5 -03490.9 -07.6530 26213.0
 02 10 2013  22 58  -21.0603 25980.1 -03491.2 -07.6535 26213.6
 02 10 2013  22 59  -21.0600 25980.4 -03491.3 -07.6537 26214.0
 02 10 2013  23 00  -21.0596 25980.5 -03491.3 -07.6536 26214.1
 02 10 2013  23 01  -21.0593 25980.8 -03491.3 -07.6536 26214.3
 02 10 2013  23 02  -21.0592 25981.0 -03491.3 -07.6536 26214.5
 02 10 2013  23 03  -21.0591 25981.1 -03491.3 -07.6535 26214.6
 02 10 2013  23 04  -21.0590 25980.7 -03491.0 -07.6530 26214.2
 02 10 2013  23 05  -21.0585 25980.4 -03490.8 -07.6525 26213.9
 02 10 2013  23 06  -21.0573 25980.7 -03490.8 -07.6525 26214.2
 02 10 2013  23 07  -21.0561 25981.0 -03490.9 -07.6525 26214.5
 02 10 2013  23 08  -21.0551 25981.4 -03491.0 -07.6528 26214.9
 02 10 2013  23 09  -21.0529 25983.0 -03491.7 -07.6539 26216.6
 02 10 2013  23 10  -21.0515 25983.2 -03491.9 -07.6541 26216.8
 02 10 2013  23 11  -21.0501 25983.8 -03492.2 -07.6545 26217.4
 02 10 2013  23 12  -21.0489 25984.1 -03492.3 -07.6548 26217.7
 02 10 2013  23 13  -21.0477 25984.1 -03492.3 -07.6548 26217.7
 02 10 2013  23 14  -21.0469 25984.4 -03492.5 -07.6550 26218.0
 02 10 2013  23 15  -21.0462 25984.5 -03492.6 -07.6552 26218.2
 02 10 2013  23 16  -21.0453 25984.8 -03492.7 -07.6554 26218.5
 02 10 2013  23 17  -21.0444 25985.2 -03492.9 -07.6557 26218.9
 02 10 2013  23 18  -21.0439 25986.3 -03493.5 -07.6566 26220.1
 02 10 2013  23 19  -21.0440 25987.2 -03494.0 -07.6575 26221.0
 02 10 2013  23 20  -21.0442 25988.4 -03494.5 -07.6583 26222.3
 02 10 2013  23 21  -21.0439 25989.7 -03495.2 -07.6594 26223.7
 02 10 2013  23 22  -21.0435 25990.3 -03495.4 -07.6597 26224.3
 02 10 2013  23 23  -21.0434 25990.8 -03495.5 -07.6598 26224.8
 02 10 2013  23 24  -21.0428 25992.1 -03495.9 -07.6602 26226.1
 02 10 2013  23 25  -21.0428 25993.3 -03496.4 -07.6610 26227.4
 02 10 2013  23 26  -21.0430 25993.7 -03496.5 -07.6611 26227.8
 02 10 2013  23 27  -21.0437 25993.5 -03496.2 -07.6605 26227.5
 02 10 2013  23 28  -21.0447 25993.4 -03496.0 -07.6600 26227.4
 02 10 2013  23 29  -21.0453 25992.5 -03495.3 -07.6588 26226.4
 02 10 2013  23 30  -21.0461 25991.3 -03494.5 -07.6573 26225.2
 02 10 2013  23 31  -21.0468 25990.8 -03494.0 -07.6564 26224.6
 02 10 2013  23 32  -21.0476 25990.4 -03493.5 -07.6556 26224.1
 02 10 2013  23 33  -21.0478 25990.2 -03493.3 -07.6551 26223.9
 02 10 2013  23 34  -21.0486 25990.3 -03493.2 -07.6550 26224.0
 02 10 2013  23 35  -21.0501 25990.4 -03493.3 -07.6551 26224.1
 02 10 2013  23 36  -21.0516 25990.5 -03493.3 -07.6550 26224.3
 02 10 2013  23 37  -21.0526 25990.8 -03493.3 -07.6550 26224.6
 02 10 2013  23 38  -21.0531 25991.2 -03493.4 -07.6550 26224.9
 02 10 2013  23 39  -21.0531 25991.3 -03493.2 -07.6546 26225.0
 02 10 2013  23 40  -21.0521 25991.7 -03493.2 -07.6544 26225.4
 02 10 2013  23 41  -21.0511 25992.0 -03493.1 -07.6541 26225.6
 02 10 2013  23 42  -21.0498 25992.1 -03493.0 -07.6539 26225.7
 02 10 2013  23 43  -21.0484 25991.9 -03492.8 -07.6536 26225.6
 02 10 2013  23 44  -21.0472 25991.9 -03492.7 -07.6534 26225.6
 02 10 2013  23 45  -21.0462 25991.8 -03492.7 -07.6533 26225.4
 02 10 2013  23 46  -21.0455 25991.6 -03492.6 -07.6531 26225.2
 02 10 2013  23 47  -21.0446 25991.5 -03492.5 -07.6530 26225.1
 02 10 2013  23 48  -21.0437 25991.2 -03492.3 -07.6527 26224.8
 02 10 2013  23 49  -21.0430 25990.9 -03492.2 -07.6525 26224.5
 02 10 2013  23 50  -21.0425 25990.5 -03492.1 -07.6524 26224.1
 02 10 2013  23 51  -21.0422 25990.1 -03491.9 -07.6521 26223.6
 02 10 2013  23 52  -21.0417 25989.7 -03491.7 -07.6519 26223.2
 02 10 2013  23 53  -21.0407 25989.2 -03491.5 -07.6515 26222.6
 02 10 2013  23 54  -21.0400 25988.8 -03491.4 -07.6514 26222.3
 02 10 2013  23 55  -21.0396 25988.5 -03491.3 -07.6513 26221.9
 02 10 2013  23 56  -21.0394 25988.2 -03491.3 -07.6514 26221.7
 02 10 2013  23 57  -21.0393 25987.9 -03491.3 -07.6515 26221.4
