SAO LUIS EMBRACE-03 <282> 1 Min. Reported data

 DD MM YYYY  HH MM   D(Deg)  H(nT)   Z(nT)   I(Deg)   F(nT)

 09 10 2013  00 00  -21.0362 25947.9 -03480.6 -07.6400 26180.4
 09 10 2013  00 01  -21.0315 25948.2 -03480.9 -07.6404 26180.6
 09 10 2013  00 02  -21.0285 25948.5 -03481.4 -07.6414 26181.0
 09 10 2013  00 03  -21.0291 25948.2 -03481.9 -07.6427 26180.8
 09 10 2013  00 04  -21.0323 25946.6 -03481.9 -07.6430 26179.2
 09 10 2013  00 05  -21.0353 25944.9 -03481.4 -07.6426 26177.5
 09 10 2013  00 06  -21.0375 25944.2 -03481.4 -07.6426 26176.7
 09 10 2013  00 07  -21.0391 25944.3 -03481.6 -07.6431 26176.9
 09 10 2013  00 08  -21.0400 25944.5 -03482.0 -07.6440 26177.1
 09 10 2013  00 09  -21.0400 25942.9 -03481.5 -07.6434 26175.5
 09 10 2013  00 10  -21.0395 25942.8 -03481.5 -07.6433 26175.4
 09 10 2013  00 11  -21.0392 25943.5 -03482.1 -07.6444 26176.2
 09 10 2013  00 12  -21.0393 25942.8 -03482.0 -07.6445 26175.5
 09 10 2013  00 13  -21.0415 25941.2 -03481.6 -07.6440 26173.7
 09 10 2013  00 14  -21.0451 25936.4 -03479.6 -07.6412 26168.8
 09 10 2013  00 15  -21.0490 25931.3 -03477.1 -07.6372 26163.4
 09 10 2013  00 16  -21.0510 25928.8 -03475.7 -07.6349 26160.7
 09 10 2013  00 17  -21.0518 25929.1 -03476.0 -07.6354 26161.0
 09 10 2013  00 18  -21.0512 25929.2 -03476.5 -07.6366 26161.2
 09 10 2013  00 19  -21.0499 25930.5 -03477.5 -07.6383 26162.6
 09 10 2013  00 20  -21.0488 25932.6 -03479.0 -07.6409 26164.9
 09 10 2013  00 21  -21.0478 25934.2 -03480.3 -07.6432 26166.7
 09 10 2013  00 22  -21.0477 25934.7 -03481.0 -07.6447 26167.3
 09 10 2013  00 23  -21.0482 25934.9 -03481.4 -07.6454 26167.5
 09 10 2013  00 24  -21.0494 25935.0 -03481.6 -07.6458 26167.7
 09 10 2013  00 25  -21.0507 25936.0 -03482.1 -07.6467 26168.7
 09 10 2013  00 26  -21.0515 25937.5 -03483.0 -07.6481 26170.3
 09 10 2013  00 27  -21.0536 25937.4 -03483.3 -07.6488 26170.3
 09 10 2013  00 28  -21.0563 25936.5 -03482.9 -07.6481 26169.3
 09 10 2013  00 29  -21.0582 25935.6 -03482.3 -07.6473 26168.3
 09 10 2013  00 30  -21.0597 25933.4 -03481.1 -07.6453 26166.0
 09 10 2013  00 31  -21.0604 25932.0 -03480.3 -07.6438 26164.5
 09 10 2013  00 32  -21.0602 25931.2 -03479.7 -07.6429 26163.6
 09 10 2013  00 33  -21.0596 25931.4 -03479.9 -07.6431 26163.8
 09 10 2013  00 34  -21.0574 25933.0 -03480.8 -07.6447 26165.5
 09 10 2013  00 35  -21.0551 25934.6 -03481.9 -07.6467 26167.3
 09 10 2013  00 36  -21.0542 25935.0 -03482.5 -07.6477 26167.7
 09 10 2013  00 37  -21.0537 25935.3 -03482.8 -07.6483 26168.1
 09 10 2013  00 38  -21.0541 25934.9 -03482.8 -07.6485 26167.7
 09 10 2013  00 39  -21.0547 25934.2 -03482.5 -07.6481 26166.9
 09 10 2013  00 40  -21.0544 25933.9 -03482.4 -07.6480 26166.6
 09 10 2013  00 41  -21.0537 25933.6 -03482.3 -07.6478 26166.3
 09 10 2013  00 42  -21.0526 25933.4 -03482.5 -07.6482 26166.2
 09 10 2013  00 43  -21.0518 25932.8 -03482.2 -07.6477 26165.6
 09 10 2013  00 44  -21.0506 25934.3 -03483.0 -07.6492 26167.1
 09 10 2013  00 45  -21.0493 25936.9 -03484.7 -07.6519 26169.9
 09 10 2013  00 46  -21.0476 25939.5 -03486.1 -07.6543 26172.7
 09 10 2013  00 47  -21.0459 25943.5 -03488.4 -07.6581 26176.9
 09 10 2013  00 48  -21.0455 25945.1 -03489.4 -07.6599 26178.7
 09 10 2013  00 49  -21.0443 25947.4 -03490.5 -07.6615 26181.1
 09 10 2013  00 50  -21.0439 25948.8 -03491.1 -07.6625 26182.6
 09 10 2013  00 51  -21.0448 25950.1 -03491.7 -07.6633 26184.0
 09 10 2013  00 52  -21.0466 25951.1 -03492.1 -07.6638 26185.0
 09 10 2013  00 53  -21.0483 25951.2 -03491.9 -07.6634 26185.1
 09 10 2013  00 54  -21.0499 25951.9 -03491.9 -07.6633 26185.8
 09 10 2013  00 55  -21.0516 25952.6 -03491.9 -07.6631 26186.5
 09 10 2013  00 56  -21.0536 25952.1 -03491.5 -07.6623 26186.0
 09 10 2013  00 57  -21.0549 25952.3 -03491.2 -07.6615 26186.0
 09 10 2013  00 58  -21.0562 25952.9 -03491.2 -07.6614 26186.7
 09 10 2013  00 59  -21.0576 25953.4 -03491.1 -07.6612 26187.1
 09 10 2013  01 00  -21.0589 25953.7 -03491.1 -07.6609 26187.5
 09 10 2013  01 01  -21.0598 25955.1 -03491.4 -07.6612 26188.9
 09 10 2013  01 02  -21.0601 25956.5 -03491.9 -07.6619 26190.3
 09 10 2013  01 03  -21.0608 25957.0 -03491.9 -07.6618 26190.8
 09 10 2013  01 04  -21.0613 25958.0 -03492.1 -07.6620 26191.8
 09 10 2013  01 05  -21.0612 25960.0 -03492.8 -07.6628 26193.9
 09 10 2013  01 06  -21.0608 25963.0 -03493.9 -07.6644 26197.0
 09 10 2013  01 07  -21.0609 25965.4 -03495.1 -07.6662 26199.6
 09 10 2013  01 08  -21.0619 25964.7 -03494.7 -07.6655 26198.8
 09 10 2013  01 09  -21.0638 25962.4 -03493.2 -07.6631 26196.3
 09 10 2013  01 10  -21.0655 25960.3 -03491.7 -07.6604 26194.0
 09 10 2013  01 11  -21.0652 25959.7 -03490.9 -07.6587 26193.3
 09 10 2013  01 12  -21.0650 25959.7 -03490.5 -07.6580 26193.3
 09 10 2013  01 13  -21.0653 25959.9 -03490.5 -07.6579 26193.5
 09 10 2013  01 14  -21.0649 25960.4 -03490.6 -07.6580 26194.0
 09 10 2013  01 15  -21.0643 25960.4 -03490.5 -07.6577 26194.0
 09 10 2013  01 16  -21.0631 25960.5 -03490.3 -07.6573 26194.0
 09 10 2013  01 17  -21.0626 25960.0 -03490.0 -07.6568 26193.5
 09 10 2013  01 18  -21.0624 25959.6 -03489.7 -07.6563 26193.1
 09 10 2013  01 19  -21.0622 25959.1 -03489.5 -07.6559 26192.6
 09 10 2013  01 20  -21.0617 25958.2 -03489.0 -07.6551 26191.6
 09 10 2013  01 21  -21.0612 25958.0 -03488.7 -07.6546 26191.4
 09 10 2013  01 22  -21.0612 25958.4 -03488.9 -07.6549 26191.8
 09 10 2013  01 23  -21.0616 25958.6 -03489.1 -07.6552 26192.0
 09 10 2013  01 24  -21.0618 25958.7 -03489.1 -07.6552 26192.1
 09 10 2013  01 25  -21.0618 25958.8 -03489.2 -07.6554 26192.3
 09 10 2013  01 26  -21.0614 25959.0 -03489.2 -07.6554 26192.5
 09 10 2013  01 27  -21.0613 25959.1 -03489.2 -07.6553 26192.5
 09 10 2013  01 28  -21.0603 25959.2 -03489.2 -07.6553 26192.6
 09 10 2013  01 29  -21.0595 25958.6 -03488.9 -07.6547 26192.0
 09 10 2013  01 30  -21.0587 25958.2 -03488.6 -07.6543 26191.6
 09 10 2013  01 31  -21.0583 25958.0 -03488.5 -07.6541 26191.4
 09 10 2013  01 32  -21.0582 25958.3 -03488.6 -07.6543 26191.6
 09 10 2013  01 33  -21.0582 25958.8 -03489.0 -07.6549 26192.2
 09 10 2013  01 34  -21.0586 25959.1 -03489.2 -07.6553 26192.5
 09 10 2013  01 35  -21.0588 25959.9 -03489.6 -07.6559 26193.3
 09 10 2013  01 36  -21.0589 25960.6 -03490.0 -07.6566 26194.1
 09 10 2013  01 37  -21.0587 25961.4 -03490.4 -07.6572 26195.0
 09 10 2013  01 38  -21.0581 25962.3 -03490.7 -07.6577 26195.9
 09 10 2013  01 39  -21.0577 25962.5 -03490.9 -07.6579 26196.1
 09 10 2013  01 40  -21.0572 25962.9 -03490.9 -07.6579 26196.5
 09 10 2013  01 41  -21.0576 25963.5 -03491.2 -07.6583 26197.1
 09 10 2013  01 42  -21.0577 25964.2 -03491.5 -07.6588 26197.9
 09 10 2013  01 43  -21.0578 25964.5 -03491.6 -07.6590 26198.3
 09 10 2013  01 44  -21.0581 25964.8 -03491.7 -07.6590 26198.6
 09 10 2013  01 45  -21.0584 25964.7 -03491.6 -07.6588 26198.4
 09 10 2013  01 46  -21.0583 25964.8 -03491.5 -07.6586 26198.5
 09 10 2013  01 47  -21.0581 25964.9 -03491.4 -07.6583 26198.6
 09 10 2013  01 48  -21.0578 25965.4 -03491.5 -07.6584 26199.1
 09 10 2013  01 49  -21.0578 25965.8 -03491.7 -07.6587 26199.5
 09 10 2013  01 50  -21.0581 25966.2 -03491.9 -07.6590 26199.9
 09 10 2013  01 51  -21.0585 25966.4 -03492.0 -07.6592 26200.2
 09 10 2013  01 52  -21.0590 25966.4 -03492.0 -07.6592 26200.2
 09 10 2013  01 53  -21.0593 25966.4 -03491.8 -07.6589 26200.1
 09 10 2013  01 54  -21.0589 25966.5 -03491.7 -07.6587 26200.2
 09 10 2013  01 55  -21.0583 25966.4 -03491.6 -07.6585 26200.1
 09 10 2013  01 56  -21.0576 25966.3 -03491.6 -07.6583 26200.0
 09 10 2013  01 57  -21.0571 25966.2 -03491.5 -07.6582 26199.9
 09 10 2013  01 58  -21.0566 25966.4 -03491.5 -07.6582 26200.0
 09 10 2013  01 59  -21.0561 25966.6 -03491.7 -07.6585 26200.3
 09 10 2013  02 00  -21.0557 25966.8 -03491.8 -07.6587 26200.5
 09 10 2013  02 01  -21.0556 25967.0 -03491.9 -07.6589 26200.7
 09 10 2013  02 02  -21.0557 25967.5 -03492.2 -07.6593 26201.2
 09 10 2013  02 03  -21.0554 25968.4 -03492.6 -07.6600 26202.2
 09 10 2013  02 04  -21.0550 25968.9 -03492.9 -07.6605 26202.8
 09 10 2013  02 05  -21.0544 25969.6 -03493.2 -07.6609 26203.5
 09 10 2013  02 06  -21.0546 25970.0 -03493.4 -07.6612 26203.9
 09 10 2013  02 07  -21.0552 25970.3 -03493.5 -07.6613 26204.2
 09 10 2013  02 08  -21.0556 25971.3 -03493.9 -07.6620 26205.3
 09 10 2013  02 09  -21.0561 25972.0 -03494.2 -07.6623 26205.9
 09 10 2013  02 10  -21.0564 25972.6 -03494.3 -07.6625 26206.6
 09 10 2013  02 11  -21.0560 25973.1 -03494.4 -07.6625 26207.1
 09 10 2013  02 12  -21.0553 25973.4 -03494.4 -07.6623 26207.4
 09 10 2013  02 13  -21.0542 25973.9 -03494.4 -07.6622 26207.9
 09 10 2013  02 14  -21.0527 25974.4 -03494.5 -07.6622 26208.4
 09 10 2013  02 15  -21.0514 25975.3 -03494.7 -07.6626 26209.3
 09 10 2013  02 16  -21.0513 25976.2 -03495.1 -07.6632 26210.3
 09 10 2013  02 17  -21.0517 25976.6 -03495.3 -07.6634 26210.7
 09 10 2013  02 18  -21.0505 25976.0 -03494.9 -07.6627 26210.1
 09 10 2013  02 19  -21.0478 25973.7 -03493.4 -07.6603 26207.5
 09 10 2013  02 20  -21.0459 25971.2 -03491.9 -07.6577 26204.9
 09 10 2013  02 21  -21.0458 25970.0 -03491.3 -07.6566 26203.6
 09 10 2013  02 22  -21.0461 25970.2 -03491.5 -07.6571 26203.9
 09 10 2013  02 23  -21.0465 25971.3 -03492.3 -07.6584 26205.1
 09 10 2013  02 24  -21.0468 25971.9 -03492.8 -07.6595 26205.7
 09 10 2013  02 25  -21.0474 25971.4 -03492.8 -07.6594 26205.2
 09 10 2013  02 26  -21.0482 25970.7 -03492.5 -07.6591 26204.5
 09 10 2013  02 27  -21.0493 25970.0 -03492.2 -07.6586 26203.8
 09 10 2013  02 28  -21.0499 25970.5 -03492.5 -07.6591 26204.3
 09 10 2013  02 29  -21.0504 25970.9 -03492.7 -07.6595 26204.7
 09 10 2013  02 30  -21.0508 25971.2 -03493.0 -07.6600 26205.1
 09 10 2013  02 31  -21.0510 25971.0 -03492.9 -07.6600 26204.9
 09 10 2013  02 32  -21.0505 25970.2 -03492.5 -07.6592 26204.0
 09 10 2013  02 33  -21.0498 25969.6 -03492.1 -07.6586 26203.4
 09 10 2013  02 34  -21.0493 25969.5 -03492.1 -07.6585 26203.2
 09 10 2013  02 35  -21.0488 25969.7 -03492.2 -07.6587 26203.4
 09 10 2013  02 36  -21.0480 25969.9 -03492.3 -07.6589 26203.6
 09 10 2013  02 37  -21.0474 25969.9 -03492.4 -07.6590 26203.7
 09 10 2013  02 38  -21.0469 25969.8 -03492.4 -07.6591 26203.6
 09 10 2013  02 39  -21.0463 25969.7 -03492.3 -07.6590 26203.4
 09 10 2013  02 40  -21.0457 25969.9 -03492.5 -07.6593 26203.7
 09 10 2013  02 41  -21.0457 25970.1 -03492.7 -07.6597 26203.9
 09 10 2013  02 42  -21.0457 25970.4 -03492.9 -07.6601 26204.2
 09 10 2013  02 43  -21.0461 25971.1 -03493.3 -07.6608 26205.0
 09 10 2013  02 44  -21.0466 25971.5 -03493.6 -07.6613 26205.4
 09 10 2013  02 45  -21.0459 25971.7 -03493.7 -07.6614 26205.6
 09 10 2013  02 46  -21.0449 25971.3 -03493.4 -07.6609 26205.2
 09 10 2013  02 47  -21.0443 25971.2 -03493.3 -07.6606 26205.1
 09 10 2013  02 48  -21.0435 25971.3 -03493.3 -07.6607 26205.2
 09 10 2013  02 49  -21.0428 25971.4 -03493.4 -07.6608 26205.3
 09 10 2013  02 50  -21.0423 25971.5 -03493.5 -07.6609 26205.4
 09 10 2013  02 51  -21.0420 25971.4 -03493.5 -07.6610 26205.3
 09 10 2013  02 52  -21.0418 25971.6 -03493.6 -07.6611 26205.5
 09 10 2013  02 53  -21.0418 25971.6 -03493.6 -07.6613 26205.6
 09 10 2013  02 54  -21.0416 25971.6 -03493.6 -07.6612 26205.5
 09 10 2013  02 55  -21.0413 25971.2 -03493.4 -07.6609 26205.1
 09 10 2013  02 56  -21.0406 25971.1 -03493.3 -07.6606 26204.9
 09 10 2013  02 57  -21.0400 25970.9 -03493.2 -07.6604 26204.8
 09 10 2013  02 58  -21.0399 25970.6 -03493.0 -07.6602 26204.5
 09 10 2013  02 59  -21.0400 25970.6 -03493.0 -07.6602 26204.5
 09 10 2013  03 00  -21.0411 25970.6 -03493.0 -07.6602 26204.5
 09 10 2013  03 01  -21.0432 25970.7 -03493.1 -07.6605 26204.6
 09 10 2013  03 02  -21.0455 25970.6 -03493.1 -07.6604 26204.5
 09 10 2013  03 03  -21.0467 25970.0 -03492.7 -07.6598 26203.8
 09 10 2013  03 04  -21.0462 25968.7 -03492.0 -07.6585 26202.4
 09 10 2013  03 05  -21.0435 25967.0 -03490.9 -07.6568 26200.6
 09 10 2013  03 06  -21.0412 25965.8 -03490.2 -07.6555 26199.4
 09 10 2013  03 07  -21.0418 25965.6 -03490.2 -07.6557 26199.2
 09 10 2013  03 08  -21.0445 25965.4 -03490.5 -07.6563 26199.0
 09 10 2013  03 09  -21.0477 25964.9 -03490.6 -07.6567 26198.5
 09 10 2013  03 10  -21.0496 25964.5 -03490.5 -07.6567 26198.1
 09 10 2013  03 11  -21.0497 25964.2 -03490.4 -07.6564 26197.8
 09 10 2013  03 12  -21.0491 25964.3 -03490.4 -07.6565 26197.8
 09 10 2013  03 13  -21.0486 25964.6 -03490.6 -07.6568 26198.2
 09 10 2013  03 14  -21.0485 25965.3 -03491.1 -07.6576 26198.9
 09 10 2013  03 15  -21.0490 25966.2 -03491.7 -07.6587 26199.9
 09 10 2013  03 16  -21.0500 25967.2 -03492.3 -07.6598 26201.0
 09 10 2013  03 17  -21.0510 25968.1 -03492.9 -07.6607 26202.0
 09 10 2013  03 18  -21.0517 25968.9 -03493.3 -07.6613 26202.8
 09 10 2013  03 19  -21.0525 25969.4 -03493.5 -07.6617 26203.3
 09 10 2013  03 20  -21.0531 25969.8 -03493.7 -07.6619 26203.8
 09 10 2013  03 21  -21.0536 25970.2 -03493.7 -07.6619 26204.1
 09 10 2013  03 22  -21.0538 25970.4 -03493.8 -07.6619 26204.4
 09 10 2013  03 23  -21.0538 25970.7 -03493.8 -07.6619 26204.6
 09 10 2013  03 24  -21.0538 25971.0 -03493.8 -07.6619 26205.0
 09 10 2013  03 25  -21.0537 25971.2 -03493.9 -07.6619 26205.2
 09 10 2013  03 26  -21.0535 25971.4 -03493.9 -07.6619 26205.4
 09 10 2013  03 27  -21.0531 25971.7 -03493.9 -07.6619 26205.6
 09 10 2013  03 28  -21.0528 25971.9 -03493.9 -07.6619 26205.8
 09 10 2013  03 29  -21.0525 25971.9 -03493.9 -07.6618 26205.9
 09 10 2013  03 30  -21.0521 25972.0 -03493.9 -07.6617 26206.0
 09 10 2013  03 31  -21.0519 25972.0 -03493.9 -07.6616 26206.0
 09 10 2013  03 32  -21.0516 25971.9 -03493.8 -07.6614 26205.8
 09 10 2013  03 33  -21.0513 25971.9 -03493.7 -07.6613 26205.8
 09 10 2013  03 34  -21.0509 25972.3 -03493.8 -07.6614 26206.3
 09 10 2013  03 35  -21.0505 25973.2 -03494.2 -07.6621 26207.2
 09 10 2013  03 36  -21.0506 25973.7 -03494.4 -07.6624 26207.7
 09 10 2013  03 37  -21.0506 25974.5 -03494.8 -07.6630 26208.5
 09 10 2013  03 38  -21.0507 25975.3 -03495.2 -07.6636 26209.4
 09 10 2013  03 39  -21.0506 25975.9 -03495.4 -07.6639 26210.0
 09 10 2013  03 40  -21.0505 25976.0 -03495.4 -07.6638 26210.1
 09 10 2013  03 41  -21.0502 25977.0 -03495.7 -07.6642 26211.1
 09 10 2013  03 42  -21.0500 25977.6 -03496.0 -07.6646 26211.8
 09 10 2013  03 43  -21.0498 25978.0 -03496.0 -07.6646 26212.2
 09 10 2013  03 44  -21.0497 25978.5 -03496.2 -07.6648 26212.7
 09 10 2013  03 45  -21.0497 25979.0 -03496.3 -07.6648 26213.2
 09 10 2013  03 46  -21.0495 25979.2 -03496.3 -07.6647 26213.4
 09 10 2013  03 47  -21.0492 25979.6 -03496.4 -07.6648 26213.8
 09 10 2013  03 48  -21.0490 25980.1 -03496.5 -07.6649 26214.3
 09 10 2013  03 49  -21.0493 25980.5 -03496.6 -07.6651 26214.8
 09 10 2013  03 50  -21.0497 25980.8 -03496.7 -07.6652 26215.0
 09 10 2013  03 51  -21.0502 25981.2 -03496.7 -07.6651 26215.4
 09 10 2013  03 52  -21.0509 25981.5 -03496.8 -07.6652 26215.8
 09 10 2013  03 53  -21.0512 25981.8 -03496.8 -07.6652 26216.1
 09 10 2013  03 54  -21.0517 25981.8 -03496.7 -07.6649 26216.1
 09 10 2013  03 55  -21.0524 25982.2 -03496.7 -07.6649 26216.4
 09 10 2013  03 56  -21.0529 25982.6 -03496.8 -07.6650 26216.9
 09 10 2013  03 57  -21.0532 25983.1 -03496.9 -07.6650 26217.4
 09 10 2013  03 58  -21.0533 25983.6 -03497.0 -07.6652 26217.9
 09 10 2013  03 59  -21.0535 25984.1 -03497.2 -07.6653 26218.4
 09 10 2013  04 00  -21.0539 25984.1 -03497.1 -07.6651 26218.4
 09 10 2013  04 01  -21.0543 25984.4 -03497.1 -07.6650 26218.6
 09 10 2013  04 02  -21.0541 25984.6 -03497.0 -07.6648 26218.9
 09 10 2013  04 03  -21.0539 25984.6 -03496.9 -07.6645 26218.8
 09 10 2013  04 04  -21.0540 25984.7 -03496.8 -07.6643 26218.9
 09 10 2013  04 05  -21.0541 25985.0 -03496.9 -07.6644 26219.2
 09 10 2013  04 06  -21.0544 25985.2 -03496.9 -07.6645 26219.5
 09 10 2013  04 07  -21.0548 25985.5 -03497.0 -07.6645 26219.7
 09 10 2013  04 08  -21.0553 25985.7 -03497.0 -07.6645 26219.9
 09 10 2013  04 09  -21.0557 25985.9 -03497.1 -07.6645 26220.1
 09 10 2013  04 10  -21.0558 25986.2 -03497.1 -07.6646 26220.4
 09 10 2013  04 11  -21.0560 25986.3 -03497.1 -07.6645 26220.6
 09 10 2013  04 12  -21.0560 25986.5 -03497.1 -07.6645 26220.8
 09 10 2013  04 13  -21.0560 25986.8 -03497.2 -07.6645 26221.1
 09 10 2013  04 14  -21.0560 25987.1 -03497.3 -07.6646 26221.4
 09 10 2013  04 15  -21.0562 25987.3 -03497.3 -07.6645 26221.5
 09 10 2013  04 16  -21.0565 25987.3 -03497.2 -07.6644 26221.5
 09 10 2013  04 17  -21.0570 25987.3 -03497.1 -07.6642 26221.5
 09 10 2013  04 18  -21.0572 25987.7 -03497.1 -07.6642 26222.0
 09 10 2013  04 19  -21.0572 25988.4 -03497.4 -07.6645 26222.7
 09 10 2013  04 20  -21.0574 25988.8 -03497.5 -07.6647 26223.0
 09 10 2013  04 21  -21.0575 25988.9 -03497.5 -07.6646 26223.2
 09 10 2013  04 22  -21.0577 25989.1 -03497.5 -07.6645 26223.4
 09 10 2013  04 23  -21.0582 25989.1 -03497.5 -07.6645 26223.4
 09 10 2013  04 24  -21.0579 25988.9 -03497.3 -07.6641 26223.2
 09 10 2013  04 25  -21.0566 25988.6 -03496.9 -07.6634 26222.8
 09 10 2013  04 26  -21.0553 25988.3 -03496.7 -07.6630 26222.5
 09 10 2013  04 27  -21.0546 25988.2 -03496.6 -07.6628 26222.3
 09 10 2013  04 28  -21.0544 25988.1 -03496.5 -07.6628 26222.3
 09 10 2013  04 29  -21.0543 25988.1 -03496.6 -07.6628 26222.3
 09 10 2013  04 30  -21.0540 25988.5 -03496.7 -07.6630 26222.6
 09 10 2013  04 31  -21.0542 25988.7 -03496.9 -07.6633 26222.9
 09 10 2013  04 32  -21.0548 25988.6 -03496.9 -07.6633 26222.8
 09 10 2013  04 33  -21.0554 25988.6 -03496.8 -07.6632 26222.8
 09 10 2013  04 34  -21.0561 25988.8 -03496.9 -07.6633 26223.0
 09 10 2013  04 35  -21.0571 25989.3 -03497.0 -07.6634 26223.5
 09 10 2013  04 36  -21.0578 25989.7 -03497.1 -07.6636 26223.9
 09 10 2013  04 37  -21.0580 25989.7 -03497.0 -07.6633 26223.9
 09 10 2013  04 38  -21.0578 25989.4 -03496.7 -07.6627 26223.6
 09 10 2013  04 39  -21.0579 25989.7 -03496.6 -07.6624 26223.8
 09 10 2013  04 40  -21.0584 25990.7 -03497.0 -07.6630 26224.9
 09 10 2013  04 41  -21.0587 25991.6 -03497.3 -07.6635 26225.8
 09 10 2013  04 42  -21.0587 25991.8 -03497.3 -07.6632 26226.1
 09 10 2013  04 43  -21.0583 25992.5 -03497.4 -07.6633 26226.7
 09 10 2013  04 44  -21.0582 25992.6 -03497.3 -07.6631 26226.8
 09 10 2013  04 45  -21.0584 25993.0 -03497.3 -07.6630 26227.3
 09 10 2013  04 46  -21.0586 25993.5 -03497.4 -07.6631 26227.7
 09 10 2013  04 47  -21.0592 25994.3 -03497.6 -07.6633 26228.5
 09 10 2013  04 48  -21.0598 25994.8 -03497.7 -07.6634 26229.0
 09 10 2013  04 49  -21.0604 25995.5 -03497.9 -07.6636 26229.7
 09 10 2013  04 50  -21.0611 25996.4 -03498.2 -07.6638 26230.7
 09 10 2013  04 51  -21.0621 25997.9 -03498.7 -07.6647 26232.3
 09 10 2013  04 52  -21.0633 25999.8 -03499.5 -07.6658 26234.3
 09 10 2013  04 53  -21.0648 26002.7 -03500.7 -07.6675 26237.3
 09 10 2013  04 54  -21.0660 26005.9 -03502.1 -07.6695 26240.7
 09 10 2013  04 55  -21.0668 26008.8 -03503.2 -07.6711 26243.6
 09 10 2013  04 56  -21.0672 26011.6 -03504.1 -07.6723 26246.5
 09 10 2013  04 57  -21.0664 26013.3 -03504.5 -07.6727 26248.3
 09 10 2013  04 58  -21.0628 26012.7 -03503.5 -07.6707 26247.5
 09 10 2013  04 59  -21.0583 26011.7 -03502.2 -07.6682 26246.4
 09 10 2013  05 00  -21.0563 26012.2 -03501.9 -07.6675 26246.8
 09 10 2013  05 01  -21.0544 26011.9 -03501.6 -07.6669 26246.5
 09 10 2013  05 02  -21.0537 26010.1 -03500.6 -07.6651 26244.6
 09 10 2013  05 03  -21.0541 26008.7 -03499.7 -07.6635 26243.1
 09 10 2013  05 04  -21.0545 26008.0 -03499.2 -07.6626 26242.3
 09 10 2013  05 05  -21.0542 26005.9 -03498.0 -07.6608 26240.1
 09 10 2013  05 06  -21.0554 26002.8 -03496.5 -07.6583 26236.8
 09 10 2013  05 07  -21.0576 25999.6 -03494.8 -07.6556 26233.4
 09 10 2013  05 08  -21.0598 25997.6 -03493.7 -07.6539 26231.3
 09 10 2013  05 09  -21.0615 25997.3 -03493.5 -07.6536 26231.0
 09 10 2013  05 10  -21.0624 25999.4 -03494.6 -07.6553 26233.2
 09 10 2013  05 11  -21.0637 26001.2 -03495.8 -07.6573 26235.2
 09 10 2013  05 12  -21.0644 26001.1 -03495.9 -07.6576 26235.1
 09 10 2013  05 13  -21.0642 26000.1 -03495.2 -07.6563 26234.0
 09 10 2013  05 14  -21.0638 26000.8 -03495.3 -07.6563 26234.7
 09 10 2013  05 15  -21.0635 26001.5 -03495.6 -07.6568 26235.4
 09 10 2013  05 16  -21.0641 26000.8 -03495.3 -07.6564 26234.7
 09 10 2013  05 17  -21.0653 25999.4 -03494.5 -07.6551 26233.2
 09 10 2013  05 18  -21.0664 25998.0 -03493.8 -07.6538 26231.7
 09 10 2013  05 19  -21.0678 25997.3 -03493.2 -07.6528 26230.9
 09 10 2013  05 20  -21.0687 25998.3 -03493.6 -07.6533 26232.0
 09 10 2013  05 21  -21.0698 26000.1 -03494.5 -07.6548 26233.9
 09 10 2013  05 22  -21.0710 26001.4 -03495.2 -07.6559 26235.3
 09 10 2013  05 23  -21.0721 26002.3 -03495.5 -07.6564 26236.2
 09 10 2013  05 24  -21.0726 26003.1 -03495.7 -07.6565 26237.0
 09 10 2013  05 25  -21.0730 26003.9 -03495.9 -07.6568 26237.9
 09 10 2013  05 26  -21.0732 26004.1 -03495.8 -07.6564 26238.0
 09 10 2013  05 27  -21.0733 26004.0 -03495.4 -07.6558 26237.8
 09 10 2013  05 28  -21.0730 26004.2 -03495.3 -07.6554 26238.0
 09 10 2013  05 29  -21.0730 26004.3 -03495.2 -07.6551 26238.1
 09 10 2013  05 30  -21.0739 26004.5 -03495.1 -07.6549 26238.3
 09 10 2013  05 31  -21.0746 26004.5 -03495.0 -07.6546 26238.3
 09 10 2013  05 32  -21.0750 26005.1 -03495.1 -07.6547 26238.9
 09 10 2013  05 33  -21.0756 26005.7 -03495.2 -07.6548 26239.5
 09 10 2013  05 34  -21.0751 26006.3 -03495.3 -07.6549 26240.1
 09 10 2013  05 35  -21.0744 26006.8 -03495.4 -07.6549 26240.7
 09 10 2013  05 36  -21.0746 26008.0 -03495.8 -07.6554 26241.9
 09 10 2013  05 37  -21.0753 26009.5 -03496.5 -07.6565 26243.5
 09 10 2013  05 38  -21.0756 26010.9 -03497.1 -07.6573 26244.9
 09 10 2013  05 39  -21.0759 26011.7 -03497.3 -07.6576 26245.7
 09 10 2013  05 40  -21.0767 26012.6 -03497.6 -07.6578 26246.7
 09 10 2013  05 41  -21.0783 26014.2 -03498.2 -07.6587 26248.4
 09 10 2013  05 42  -21.0797 26016.2 -03498.9 -07.6597 26250.4
 09 10 2013  05 43  -21.0810 26018.6 -03499.8 -07.6609 26252.9
 09 10 2013  05 44  -21.0825 26020.9 -03500.6 -07.6621 26255.3
 09 10 2013  05 45  -21.0839 26022.7 -03501.2 -07.6628 26257.2
 09 10 2013  05 46  -21.0840 26022.8 -03500.7 -07.6617 26257.2
 09 10 2013  05 47  -21.0834 26023.2 -03500.2 -07.6605 26257.5
 09 10 2013  05 48  -21.0825 26024.1 -03500.1 -07.6600 26258.4
 09 10 2013  05 49  -21.0810 26025.1 -03500.1 -07.6597 26259.4
 09 10 2013  05 50  -21.0798 26025.3 -03499.9 -07.6591 26259.6
 09 10 2013  05 51  -21.0792 26025.3 -03499.5 -07.6583 26259.5
 09 10 2013  05 52  -21.0793 26025.0 -03499.1 -07.6575 26259.2
 09 10 2013  05 53  -21.0799 26024.0 -03498.4 -07.6563 26258.1
 09 10 2013  05 54  -21.0808 26021.7 -03497.1 -07.6542 26255.7
 09 10 2013  05 55  -21.0800 26018.5 -03495.2 -07.6511 26252.2
 09 10 2013  05 56  -21.0798 26011.8 -03491.9 -07.6459 26245.2
 09 10 2013  05 57  -21.0811 26006.4 -03488.9 -07.6409 26239.4
 09 10 2013  05 58  -21.0811 26005.0 -03488.2 -07.6398 26237.9
 09 10 2013  05 59  -21.0798 26004.4 -03488.1 -07.6397 26237.3
 09 10 2013  06 00  -21.0782 26004.6 -03488.5 -07.6406 26237.6
 09 10 2013  06 01  -21.0767 26005.0 -03489.1 -07.6417 26238.0
 09 10 2013  06 02  -21.0753 26005.0 -03489.4 -07.6425 26238.0
 09 10 2013  06 03  -21.0741 26004.7 -03489.6 -07.6429 26237.8
 09 10 2013  06 04  -21.0734 26005.9 -03490.4 -07.6443 26239.1
 09 10 2013  06 05  -21.0732 26006.7 -03491.2 -07.6458 26240.0
 09 10 2013  06 06  -21.0730 26007.3 -03491.7 -07.6467 26240.7
 09 10 2013  06 07  -21.0739 26008.5 -03492.5 -07.6481 26241.9
 09 10 2013  06 08  -21.0755 26009.4 -03493.1 -07.6492 26242.9
 09 10 2013  06 09  -21.0780 26009.5 -03493.4 -07.6498 26243.0
 09 10 2013  06 10  -21.0805 26009.5 -03493.3 -07.6496 26243.0
 09 10 2013  06 11  -21.0814 26011.1 -03493.9 -07.6504 26244.7
 09 10 2013  06 12  -21.0814 26014.0 -03495.1 -07.6522 26247.8
 09 10 2013  06 13  -21.0816 26016.4 -03496.2 -07.6539 26250.3
 09 10 2013  06 14  -21.0808 26017.3 -03496.4 -07.6541 26251.1
 09 10 2013  06 15  -21.0782 26016.4 -03495.7 -07.6526 26250.2
 09 10 2013  06 16  -21.0741 26015.7 -03494.7 -07.6508 26249.4
 09 10 2013  06 17  -21.0714 26016.1 -03494.6 -07.6504 26249.7
 09 10 2013  06 18  -21.0704 26018.8 -03495.9 -07.6524 26252.6
 09 10 2013  06 19  -21.0722 26019.4 -03496.6 -07.6537 26253.3
 09 10 2013  06 20  -21.0733 26021.8 -03497.6 -07.6552 26255.8
 09 10 2013  06 21  -21.0751 26022.7 -03498.2 -07.6563 26256.8
 09 10 2013  06 22  -21.0772 26021.8 -03497.5 -07.6551 26255.8
 09 10 2013  06 23  -21.0773 26022.5 -03497.4 -07.6547 26256.5
 09 10 2013  06 24  -21.0778 26023.5 -03497.7 -07.6549 26257.5
 09 10 2013  06 25  -21.0780 26023.9 -03497.6 -07.6547 26257.9
 09 10 2013  06 26  -21.0777 26022.5 -03496.7 -07.6531 26256.4
 09 10 2013  06 27  -21.0771 26020.8 -03495.4 -07.6509 26254.5
 09 10 2013  06 28  -21.0763 26020.0 -03494.8 -07.6496 26253.7
 09 10 2013  06 29  -21.0758 26020.6 -03495.0 -07.6499 26254.3
 09 10 2013  06 30  -21.0756 26017.9 -03493.9 -07.6484 26251.5
 09 10 2013  06 31  -21.0784 26013.9 -03491.9 -07.6452 26247.2
 09 10 2013  06 32  -21.0775 26016.4 -03492.7 -07.6462 26249.8
 09 10 2013  06 33  -21.0761 26022.1 -03495.7 -07.6512 26255.8
 09 10 2013  06 34  -21.0764 26023.6 -03497.0 -07.6535 26257.5
 09 10 2013  06 35  -21.0747 26022.3 -03496.4 -07.6525 26256.2
 09 10 2013  06 36  -21.0715 26015.1 -03492.6 -07.6465 26248.5
 09 10 2013  06 37  -21.0717 26010.7 -03489.8 -07.6416 26243.8
 09 10 2013  06 38  -21.0729 26010.3 -03489.8 -07.6417 26243.4
 09 10 2013  06 39  -21.0723 26011.1 -03490.4 -07.6428 26244.2
 09 10 2013  06 40  -21.0716 26012.0 -03491.2 -07.6443 26245.3
 09 10 2013  06 41  -21.0704 26012.8 -03491.9 -07.6455 26246.2
 09 10 2013  06 42  -21.0691 26013.5 -03492.4 -07.6465 26246.9
 09 10 2013  06 43  -21.0681 26013.2 -03492.5 -07.6468 26246.6
 09 10 2013  06 44  -21.0668 26012.5 -03492.3 -07.6464 26245.9
 09 10 2013  06 45  -21.0662 26012.5 -03492.4 -07.6467 26245.9
 09 10 2013  06 46  -21.0661 26011.6 -03492.2 -07.6466 26245.0
 09 10 2013  06 47  -21.0657 26010.7 -03491.9 -07.6461 26244.1
 09 10 2013  06 48  -21.0659 26010.5 -03491.9 -07.6463 26243.9
 09 10 2013  06 49  -21.0665 26010.7 -03492.2 -07.6468 26244.1
 09 10 2013  06 50  -21.0668 26010.9 -03492.5 -07.6475 26244.3
 09 10 2013  06 51  -21.0673 26011.0 -03492.7 -07.6479 26244.5
 09 10 2013  06 52  -21.0680 26011.9 -03493.3 -07.6488 26245.4
 09 10 2013  06 53  -21.0693 26012.4 -03493.6 -07.6493 26246.0
 09 10 2013  06 54  -21.0704 26012.8 -03493.9 -07.6498 26246.4
 09 10 2013  06 55  -21.0708 26013.0 -03493.9 -07.6498 26246.6
 09 10 2013  06 56  -21.0715 26013.4 -03494.0 -07.6500 26247.0
 09 10 2013  06 57  -21.0724 26013.7 -03494.1 -07.6501 26247.3
 09 10 2013  06 58  -21.0730 26014.2 -03494.2 -07.6502 26247.8
 09 10 2013  06 59  -21.0737 26014.5 -03494.3 -07.6502 26248.1
 09 10 2013  07 00  -21.0749 26015.2 -03494.5 -07.6505 26248.8
 09 10 2013  07 01  -21.0762 26016.4 -03495.0 -07.6513 26250.1
 09 10 2013  07 02  -21.0778 26017.4 -03495.5 -07.6520 26251.1
 09 10 2013  07 03  -21.0795 26018.0 -03495.7 -07.6522 26251.8
 09 10 2013  07 04  -21.0809 26018.0 -03495.6 -07.6519 26251.8
 09 10 2013  07 05  -21.0812 26018.4 -03495.5 -07.6516 26252.2
 09 10 2013  07 06  -21.0817 26019.6 -03495.8 -07.6520 26253.3
 09 10 2013  07 07  -21.0824 26020.0 -03495.9 -07.6521 26253.8
 09 10 2013  07 08  -21.0819 26020.5 -03495.9 -07.6520 26254.3
 09 10 2013  07 09  -21.0822 26020.5 -03495.7 -07.6515 26254.2
 09 10 2013  07 10  -21.0825 26020.3 -03495.4 -07.6510 26254.1
 09 10 2013  07 11  -21.0820 26021.0 -03495.5 -07.6510 26254.8
 09 10 2013  07 12  -21.0800 26021.0 -03495.2 -07.6503 26254.7
 09 10 2013  07 13  -21.0747 26020.2 -03494.5 -07.6490 26253.8
 09 10 2013  07 14  -21.0677 26018.3 -03493.2 -07.6467 26251.8
 09 10 2013  07 15  -21.0639 26019.4 -03493.8 -07.6478 26252.9
 09 10 2013  07 16  -21.0635 26019.9 -03494.6 -07.6492 26253.6
 09 10 2013  07 17  -21.0648 26020.1 -03495.1 -07.6503 26253.8
 09 10 2013  07 18  -21.0672 26020.6 -03495.6 -07.6513 26254.3
 09 10 2013  07 19  -21.0688 26020.5 -03495.7 -07.6515 26254.3
 09 10 2013  07 20  -21.0691 26020.8 -03495.8 -07.6516 26254.6
 09 10 2013  07 21  -21.0696 26021.2 -03495.8 -07.6516 26255.0
 09 10 2013  07 22  -21.0710 26021.6 -03496.0 -07.6519 26255.4
 09 10 2013  07 23  -21.0719 26021.8 -03496.1 -07.6519 26255.6
 09 10 2013  07 24  -21.0723 26021.2 -03495.6 -07.6512 26254.9
 09 10 2013  07 25  -21.0717 26021.0 -03495.3 -07.6504 26254.7
 09 10 2013  07 26  -21.0713 26020.3 -03494.8 -07.6497 26254.0
 09 10 2013  07 27  -21.0708 26020.0 -03494.5 -07.6491 26253.6
 09 10 2013  07 28  -21.0702 26019.8 -03494.4 -07.6488 26253.4
 09 10 2013  07 29  -21.0699 26019.6 -03494.3 -07.6488 26253.2
 09 10 2013  07 30  -21.0706 26018.8 -03493.9 -07.6481 26252.3
 09 10 2013  07 31  -21.0714 26018.8 -03493.9 -07.6481 26252.3
 09 10 2013  07 32  -21.0729 26018.2 -03493.8 -07.6480 26251.7
 09 10 2013  07 33  -21.0741 26018.4 -03493.8 -07.6481 26251.9
 09 10 2013  07 34  -21.0749 26019.0 -03494.1 -07.6486 26252.6
 09 10 2013  07 35  -21.0748 26019.7 -03494.5 -07.6491 26253.3
 09 10 2013  07 36  -21.0741 26019.7 -03494.4 -07.6489 26253.3
 09 10 2013  07 37  -21.0734 26020.4 -03494.7 -07.6493 26254.0
 09 10 2013  07 38  -21.0729 26021.3 -03495.1 -07.6500 26255.0
 09 10 2013  07 39  -21.0721 26021.9 -03495.3 -07.6503 26255.6
 09 10 2013  07 40  -21.0715 26022.4 -03495.5 -07.6506 26256.1
 09 10 2013  07 41  -21.0714 26022.7 -03495.7 -07.6509 26256.4
 09 10 2013  07 42  -21.0719 26022.9 -03495.9 -07.6511 26256.7
 09 10 2013  07 43  -21.0717 26023.2 -03496.0 -07.6513 26257.0
 09 10 2013  07 44  -21.0707 26022.8 -03495.7 -07.6507 26256.6
 09 10 2013  07 45  -21.0686 26022.7 -03495.4 -07.6502 26256.4
 09 10 2013  07 46  -21.0667 26022.2 -03495.1 -07.6496 26255.9
 09 10 2013  07 47  -21.0646 26021.8 -03494.8 -07.6491 26255.4
 09 10 2013  07 48  -21.0631 26021.5 -03494.7 -07.6490 26255.2
 09 10 2013  07 49  -21.0617 26021.7 -03494.9 -07.6494 26255.3
 09 10 2013  07 50  -21.0603 26022.2 -03495.2 -07.6500 26255.9
 09 10 2013  07 51  -21.0591 26021.9 -03495.2 -07.6501 26255.6
 09 10 2013  07 52  -21.0578 26021.4 -03495.0 -07.6498 26255.0
 09 10 2013  07 53  -21.0565 26020.5 -03494.7 -07.6492 26254.2
 09 10 2013  07 54  -21.0560 26019.4 -03494.2 -07.6485 26253.0
 09 10 2013  07 55  -21.0552 26019.4 -03494.2 -07.6485 26252.9
 09 10 2013  07 56  -21.0538 26019.9 -03494.6 -07.6493 26253.5
 09 10 2013  07 57  -21.0529 26019.1 -03494.4 -07.6491 26252.7
 09 10 2013  07 58  -21.0523 26018.1 -03494.0 -07.6485 26251.6
 09 10 2013  07 59  -21.0529 26016.6 -03493.5 -07.6478 26250.1
 09 10 2013  08 00  -21.0529 26016.5 -03493.4 -07.6477 26250.0
 09 10 2013  08 01  -21.0529 26016.6 -03493.6 -07.6482 26250.2
 09 10 2013  08 02  -21.0537 26016.3 -03493.7 -07.6484 26249.8
 09 10 2013  08 03  -21.0543 26015.8 -03493.6 -07.6483 26249.3
 09 10 2013  08 04  -21.0553 26015.1 -03493.5 -07.6482 26248.6
 09 10 2013  08 05  -21.0566 26014.0 -03493.0 -07.6476 26247.5
 09 10 2013  08 06  -21.0575 26014.6 -03493.3 -07.6480 26248.1
 09 10 2013  08 07  -21.0583 26015.8 -03494.0 -07.6493 26249.3
 09 10 2013  08 08  -21.0598 26016.2 -03494.4 -07.6499 26249.8
 09 10 2013  08 09  -21.0620 26016.4 -03494.5 -07.6502 26250.0
 09 10 2013  08 10  -21.0637 26015.5 -03494.1 -07.6494 26249.0
 09 10 2013  08 11  -21.0648 26014.9 -03493.6 -07.6486 26248.4
 09 10 2013  08 12  -21.0665 26014.5 -03493.4 -07.6484 26248.1
 09 10 2013  08 13  -21.0705 26011.9 -03492.4 -07.6468 26245.3
 09 10 2013  08 14  -21.0748 26010.1 -03491.5 -07.6454 26243.4
 09 10 2013  08 15  -21.0767 26007.8 -03490.2 -07.6434 26240.9
 09 10 2013  08 16  -21.0788 26005.7 -03489.0 -07.6413 26238.7
 09 10 2013  08 17  -21.0803 26005.5 -03488.9 -07.6411 26238.5
 09 10 2013  08 18  -21.0806 26006.2 -03489.2 -07.6416 26239.2
 09 10 2013  08 19  -21.0768 26006.1 -03489.1 -07.6414 26239.2
 09 10 2013  08 20  -21.0706 26005.3 -03488.4 -07.6402 26238.2
 09 10 2013  08 21  -21.0653 26004.7 -03488.1 -07.6398 26237.6
 09 10 2013  08 22  -21.0624 26003.7 -03487.9 -07.6396 26236.5
 09 10 2013  08 23  -21.0596 26003.4 -03488.1 -07.6401 26236.3
 09 10 2013  08 24  -21.0566 26003.3 -03488.5 -07.6408 26236.3
 09 10 2013  08 25  -21.0541 26002.7 -03488.5 -07.6412 26235.7
 09 10 2013  08 26  -21.0528 26003.3 -03489.2 -07.6425 26236.4
 09 10 2013  08 27  -21.0529 26003.7 -03489.9 -07.6439 26236.8
 09 10 2013  08 28  -21.0527 26004.6 -03490.8 -07.6455 26237.9
 09 10 2013  08 29  -21.0545 26006.1 -03492.0 -07.6476 26239.5
 09 10 2013  08 30  -21.0554 26007.9 -03493.1 -07.6497 26241.4
 09 10 2013  08 31  -21.0567 26009.2 -03494.0 -07.6511 26242.8
 09 10 2013  08 32  -21.0575 26009.1 -03494.1 -07.6514 26242.8
 09 10 2013  08 33  -21.0565 26009.7 -03494.4 -07.6518 26243.4
 09 10 2013  08 34  -21.0568 26009.8 -03494.5 -07.6521 26243.5
 09 10 2013  08 35  -21.0559 26010.0 -03494.6 -07.6522 26243.7
 09 10 2013  08 36  -21.0560 26010.0 -03494.7 -07.6523 26243.7
 09 10 2013  08 37  -21.0559 26009.0 -03494.2 -07.6516 26242.6
 09 10 2013  08 38  -21.0547 26008.5 -03494.0 -07.6513 26242.1
 09 10 2013  08 39  -21.0538 26008.1 -03494.0 -07.6514 26241.8
 09 10 2013  08 40  -21.0531 26008.1 -03494.2 -07.6519 26241.8
 09 10 2013  08 41  -21.0520 26008.0 -03494.3 -07.6521 26241.7
 09 10 2013  08 42  -21.0513 26007.2 -03494.0 -07.6518 26240.9
 09 10 2013  08 43  -21.0501 26006.5 -03493.8 -07.6515 26240.2
 09 10 2013  08 44  -21.0479 26006.6 -03494.0 -07.6519 26240.3
 09 10 2013  08 45  -21.0472 26007.8 -03494.9 -07.6535 26241.6
 09 10 2013  08 46  -21.0482 26008.8 -03495.8 -07.6551 26242.7
 09 10 2013  08 47  -21.0486 26009.4 -03496.4 -07.6563 26243.3
 09 10 2013  08 48  -21.0490 26009.3 -03496.5 -07.6565 26243.3
 09 10 2013  08 49  -21.0482 26009.3 -03496.6 -07.6567 26243.3
 09 10 2013  08 50  -21.0481 26009.7 -03497.0 -07.6574 26243.7
 09 10 2013  08 51  -21.0473 26009.9 -03497.3 -07.6580 26243.9
 09 10 2013  08 52  -21.0461 26010.1 -03497.4 -07.6582 26244.1
 09 10 2013  08 53  -21.0448 26010.9 -03497.8 -07.6589 26245.0
 09 10 2013  08 54  -21.0440 26011.5 -03498.3 -07.6598 26245.7
 09 10 2013  08 55  -21.0444 26011.2 -03498.4 -07.6600 26245.4
 09 10 2013  08 56  -21.0445 26011.1 -03498.3 -07.6599 26245.3
 09 10 2013  08 57  -21.0422 26011.9 -03498.7 -07.6606 26246.1
 09 10 2013  08 58  -21.0390 26012.3 -03499.1 -07.6614 26246.6
 09 10 2013  08 59  -21.0370 26012.0 -03499.2 -07.6617 26246.3
 09 10 2013  09 00  -21.0359 26011.8 -03499.3 -07.6617 26246.1
 09 10 2013  09 01  -21.0354 26012.2 -03499.7 -07.6626 26246.6
 09 10 2013  09 02  -21.0337 26012.0 -03499.9 -07.6630 26246.4
 09 10 2013  09 03  -21.0323 26011.6 -03499.8 -07.6630 26246.0
 09 10 2013  09 04  -21.0319 26011.7 -03500.1 -07.6636 26246.1
 09 10 2013  09 05  -21.0314 26012.4 -03500.7 -07.6647 26246.9
 09 10 2013  09 06  -21.0309 26013.3 -03501.3 -07.6657 26247.9
 09 10 2013  09 07  -21.0297 26013.4 -03501.4 -07.6660 26248.0
 09 10 2013  09 08  -21.0291 26013.1 -03501.3 -07.6658 26247.7
 09 10 2013  09 09  -21.0288 26013.6 -03501.5 -07.6662 26248.2
 09 10 2013  09 10  -21.0281 26014.3 -03501.9 -07.6668 26249.0
 09 10 2013  09 11  -21.0268 26015.3 -03502.4 -07.6675 26250.0
 09 10 2013  09 12  -21.0258 26015.5 -03502.5 -07.6677 26250.2
 09 10 2013  09 13  -21.0267 26016.4 -03503.1 -07.6686 26251.2
 09 10 2013  09 14  -21.0269 26017.3 -03503.6 -07.6696 26252.2
 09 10 2013  09 15  -21.0278 26018.5 -03504.3 -07.6706 26253.4
 09 10 2013  09 16  -21.0277 26019.2 -03504.6 -07.6712 26254.1
 09 10 2013  09 17  -21.0265 26019.2 -03504.6 -07.6712 26254.2
 09 10 2013  09 18  -21.0267 26019.0 -03504.6 -07.6712 26253.9
 09 10 2013  09 19  -21.0266 26018.7 -03504.5 -07.6711 26253.6
 09 10 2013  09 20  -21.0258 26018.4 -03504.5 -07.6711 26253.4
 09 10 2013  09 21  -21.0258 26018.3 -03504.5 -07.6713 26253.3
 09 10 2013  09 22  -21.0265 26018.4 -03504.8 -07.6718 26253.4
 09 10 2013  09 23  -21.0264 26018.3 -03504.9 -07.6720 26253.3
 09 10 2013  09 24  -21.0245 26017.5 -03504.6 -07.6716 26252.4
 09 10 2013  09 25  -21.0231 26016.3 -03504.1 -07.6709 26251.2
 09 10 2013  09 26  -21.0222 26015.7 -03503.9 -07.6708 26250.6
 09 10 2013  09 27  -21.0209 26015.5 -03504.0 -07.6710 26250.4
 09 10 2013  09 28  -21.0201 26014.8 -03503.9 -07.6709 26249.7
 09 10 2013  09 29  -21.0191 26014.5 -03503.9 -07.6711 26249.5
 09 10 2013  09 30  -21.0182 26014.5 -03504.1 -07.6715 26249.5
 09 10 2013  09 31  -21.0190 26014.9 -03504.6 -07.6723 26249.9
 09 10 2013  09 32  -21.0194 26015.1 -03504.9 -07.6730 26250.2
 09 10 2013  09 33  -21.0197 26014.8 -03504.9 -07.6731 26249.9
 09 10 2013  09 34  -21.0171 26014.2 -03504.7 -07.6727 26249.3
 09 10 2013  09 35  -21.0169 26013.4 -03504.4 -07.6724 26248.4
 09 10 2013  09 36  -21.0165 26013.1 -03504.5 -07.6728 26248.1
 09 10 2013  09 37  -21.0170 26013.0 -03504.7 -07.6731 26248.0
 09 10 2013  09 38  -21.0179 26013.9 -03505.4 -07.6745 26249.1
 09 10 2013  09 39  -21.0186 26013.5 -03505.5 -07.6747 26248.6
 09 10 2013  09 40  -21.0198 26013.7 -03505.7 -07.6752 26248.9
 09 10 2013  09 41  -21.0213 26014.6 -03506.3 -07.6762 26249.8
 09 10 2013  09 42  -21.0215 26014.8 -03506.5 -07.6764 26250.1
 09 10 2013  09 43  -21.0218 26015.1 -03506.6 -07.6767 26250.4
 09 10 2013  09 44  -21.0228 26014.4 -03506.2 -07.6761 26249.6
 09 10 2013  09 45  -21.0225 26013.0 -03505.6 -07.6750 26248.2
 09 10 2013  09 46  -21.0210 26011.8 -03505.0 -07.6741 26246.9
 09 10 2013  09 47  -21.0208 26010.9 -03504.8 -07.6740 26246.0
 09 10 2013  09 48  -21.0209 26011.1 -03505.2 -07.6749 26246.2
 09 10 2013  09 49  -21.0215 26011.4 -03505.8 -07.6761 26246.6
 09 10 2013  09 50  -21.0214 26011.0 -03506.0 -07.6766 26246.2
 09 10 2013  09 51  -21.0222 26010.5 -03506.0 -07.6768 26245.7
 09 10 2013  09 52  -21.0228 26010.6 -03506.4 -07.6775 26245.9
 09 10 2013  09 53  -21.0222 26010.4 -03506.5 -07.6779 26245.7
 09 10 2013  09 54  -21.0218 26010.8 -03507.0 -07.6788 26246.2
 09 10 2013  09 55  -21.0224 26011.6 -03507.7 -07.6800 26247.1
 09 10 2013  09 56  -21.0212 26012.8 -03508.4 -07.6812 26248.3
 09 10 2013  09 57  -21.0201 26013.7 -03508.9 -07.6821 26249.3
 09 10 2013  09 58  -21.0223 26013.4 -03508.9 -07.6821 26249.0
 09 10 2013  09 59  -21.0245 26013.1 -03508.6 -07.6817 26248.7
 09 10 2013  10 00  -21.0261 26014.1 -03508.9 -07.6819 26249.7
 09 10 2013  10 01  -21.0274 26014.8 -03509.0 -07.6820 26250.4
 09 10 2013  10 02  -21.0286 26015.6 -03509.3 -07.6823 26251.3
 09 10 2013  10 03  -21.0288 26014.9 -03508.9 -07.6817 26250.5
 09 10 2013  10 04  -21.0294 26013.3 -03508.2 -07.6807 26248.8
 09 10 2013  10 05  -21.0291 26011.7 -03507.6 -07.6799 26247.1
 09 10 2013  10 06  -21.0296 26009.5 -03506.8 -07.6787 26244.8
 09 10 2013  10 07  -21.0307 26009.5 -03507.0 -07.6791 26244.9
 09 10 2013  10 08  -21.0308 26010.0 -03507.3 -07.6796 26245.4
 09 10 2013  10 09  -21.0317 26010.7 -03507.6 -07.6801 26246.1
 09 10 2013  10 10  -21.0305 26010.7 -03507.6 -07.6801 26246.2
 09 10 2013  10 11  -21.0293 26011.3 -03507.8 -07.6804 26246.8
 09 10 2013  10 12  -21.0297 26011.8 -03508.1 -07.6809 26247.3
 09 10 2013  10 13  -21.0314 26012.0 -03508.4 -07.6814 26247.6
 09 10 2013  10 14  -21.0321 26012.3 -03508.6 -07.6818 26247.8
 09 10 2013  10 15  -21.0304 26011.1 -03507.9 -07.6807 26246.5
 09 10 2013  10 16  -21.0300 26010.2 -03507.4 -07.6798 26245.7
 09 10 2013  10 17  -21.0298 26011.2 -03507.8 -07.6805 26246.7
 09 10 2013  10 18  -21.0316 26012.8 -03508.6 -07.6817 26248.3
 09 10 2013  10 19  -21.0324 26013.4 -03509.1 -07.6825 26249.0
 09 10 2013  10 20  -21.0349 26014.1 -03509.3 -07.6828 26249.8
 09 10 2013  10 21  -21.0342 26014.1 -03508.9 -07.6820 26249.7
 09 10 2013  10 22  -21.0319 26014.9 -03508.8 -07.6814 26250.5
 09 10 2013  10 23  -21.0330 26015.8 -03509.0 -07.6817 26251.4
 09 10 2013  10 24  -21.0330 26013.8 -03508.1 -07.6803 26249.2
 09 10 2013  10 25  -21.0283 26013.0 -03507.5 -07.6793 26248.5
 09 10 2013  10 26  -21.0288 26014.1 -03508.3 -07.6807 26249.6
 09 10 2013  10 27  -21.0240 26015.2 -03509.0 -07.6818 26250.8
 09 10 2013  10 28  -21.0207 26014.6 -03508.8 -07.6816 26250.2
 09 10 2013  10 29  -21.0292 26013.7 -03508.8 -07.6819 26249.3
 09 10 2013  10 30  -21.0253 26010.6 -03506.9 -07.6787 26245.9
 09 10 2013  10 31  -21.0244 26013.0 -03507.2 -07.6786 26248.3
 09 10 2013  10 32  -21.0273 26016.4 -03508.7 -07.6808 26251.9
 09 10 2013  10 33  -21.0297 26016.8 -03508.6 -07.6804 26252.3
 09 10 2013  10 34  -21.0312 26016.9 -03508.4 -07.6800 26252.4
 09 10 2013  10 35  -21.0302 26017.5 -03508.3 -07.6797 26252.9
 09 10 2013  10 36  -21.0294 26016.1 -03507.6 -07.6785 26251.5
 09 10 2013  10 37  -21.0297 26014.7 -03506.9 -07.6775 26250.0
 09 10 2013  10 38  -21.0307 26015.0 -03507.2 -07.6779 26250.4
 09 10 2013  10 39  -21.0319 26015.1 -03507.3 -07.6783 26250.5
 09 10 2013  10 40  -21.0315 26014.7 -03507.1 -07.6779 26250.0
 09 10 2013  10 41  -21.0330 26014.1 -03506.8 -07.6775 26249.4
 09 10 2013  10 42  -21.0343 26014.2 -03506.9 -07.6775 26249.5
 09 10 2013  10 43  -21.0349 26013.9 -03506.8 -07.6774 26249.2
 09 10 2013  10 44  -21.0347 26013.8 -03506.7 -07.6772 26249.1
 09 10 2013  10 45  -21.0346 26014.3 -03507.0 -07.6777 26249.7
 09 10 2013  10 46  -21.0367 26014.0 -03506.9 -07.6777 26249.3
 09 10 2013  10 47  -21.0386 26012.7 -03506.5 -07.6772 26248.0
 09 10 2013  10 48  -21.0394 26013.0 -03506.9 -07.6779 26248.3
 09 10 2013  10 49  -21.0400 26012.7 -03507.0 -07.6783 26248.0
 09 10 2013  10 50  -21.0407 26011.6 -03506.7 -07.6780 26246.9
 09 10 2013  10 51  -21.0425 26009.8 -03506.1 -07.6771 26245.0
 09 10 2013  10 52  -21.0421 26009.0 -03505.8 -07.6768 26244.2
 09 10 2013  10 53  -21.0408 26008.5 -03505.8 -07.6769 26243.7
 09 10 2013  10 54  -21.0413 26008.3 -03506.1 -07.6775 26243.6
 09 10 2013  10 55  -21.0419 26007.3 -03506.0 -07.6776 26242.6
 09 10 2013  10 56  -21.0397 26006.5 -03505.7 -07.6773 26241.7
 09 10 2013  10 57  -21.0388 26005.9 -03506.0 -07.6780 26241.2
 09 10 2013  10 58  -21.0373 26005.6 -03506.2 -07.6786 26240.9
 09 10 2013  10 59  -21.0359 26005.3 -03506.2 -07.6786 26240.6
 09 10 2013  11 00  -21.0340 26006.5 -03506.6 -07.6792 26241.9
 09 10 2013  11 01  -21.0314 26007.7 -03507.1 -07.6799 26243.1
 09 10 2013  11 02  -21.0297 26007.9 -03507.1 -07.6798 26243.3
 09 10 2013  11 03  -21.0288 26007.6 -03506.7 -07.6790 26243.0
 09 10 2013  11 04  -21.0302 26008.3 -03506.8 -07.6791 26243.7
 09 10 2013  11 05  -21.0305 26008.6 -03506.6 -07.6786 26243.9
 09 10 2013  11 06  -21.0312 26009.5 -03506.8 -07.6787 26244.8
 09 10 2013  11 07  -21.0330 26009.3 -03506.5 -07.6782 26244.6
 09 10 2013  11 08  -21.0342 26009.6 -03506.4 -07.6779 26244.9
 09 10 2013  11 09  -21.0361 26010.0 -03506.4 -07.6778 26245.3
 09 10 2013  11 10  -21.0393 26009.6 -03506.1 -07.6772 26244.9
 09 10 2013  11 11  -21.0410 26009.1 -03505.6 -07.6763 26244.3
 09 10 2013  11 12  -21.0425 26008.4 -03505.1 -07.6755 26243.5
 09 10 2013  11 13  -21.0429 26007.8 -03504.7 -07.6746 26242.9
 09 10 2013  11 14  -21.0432 26007.8 -03504.6 -07.6744 26242.9
 09 10 2013  11 15  -21.0435 26007.4 -03504.3 -07.6740 26242.4
 09 10 2013  11 16  -21.0441 26007.5 -03504.3 -07.6740 26242.6
 09 10 2013  11 17  -21.0454 26008.5 -03504.7 -07.6745 26243.6
 09 10 2013  11 18  -21.0474 26009.3 -03504.9 -07.6747 26244.4
 09 10 2013  11 19  -21.0493 26009.5 -03504.8 -07.6744 26244.6
 09 10 2013  11 20  -21.0495 26010.5 -03504.9 -07.6744 26245.6
 09 10 2013  11 21  -21.0500 26011.3 -03505.1 -07.6744 26246.4
 09 10 2013  11 22  -21.0499 26012.2 -03505.1 -07.6743 26247.3
 09 10 2013  11 23  -21.0507 26013.1 -03505.1 -07.6739 26248.2
 09 10 2013  11 24  -21.0527 26013.6 -03504.9 -07.6735 26248.6
 09 10 2013  11 25  -21.0538 26014.6 -03504.9 -07.6730 26249.6
 09 10 2013  11 26  -21.0546 26015.3 -03504.7 -07.6725 26250.3
 09 10 2013  11 27  -21.0560 26016.0 -03504.5 -07.6718 26251.0
 09 10 2013  11 28  -21.0559 26017.1 -03504.3 -07.6711 26252.0
 09 10 2013  11 29  -21.0571 26017.2 -03503.7 -07.6699 26252.0
 09 10 2013  11 30  -21.0571 26017.4 -03503.5 -07.6694 26252.2
 09 10 2013  11 31  -21.0567 26017.0 -03503.2 -07.6687 26251.8
 09 10 2013  11 32  -21.0583 26016.5 -03502.8 -07.6680 26251.2
 09 10 2013  11 33  -21.0587 26016.5 -03502.6 -07.6677 26251.2
 09 10 2013  11 34  -21.0560 26016.9 -03502.4 -07.6671 26251.6
 09 10 2013  11 35  -21.0547 26017.4 -03502.3 -07.6667 26252.1
 09 10 2013  11 36  -21.0529 26018.8 -03502.5 -07.6668 26253.5
 09 10 2013  11 37  -21.0501 26018.3 -03501.7 -07.6652 26252.9
 09 10 2013  11 38  -21.0480 26017.4 -03501.0 -07.6639 26251.9
 09 10 2013  11 39  -21.0461 26017.1 -03500.7 -07.6633 26251.6
 09 10 2013  11 40  -21.0445 26018.6 -03501.1 -07.6639 26253.1
 09 10 2013  11 41  -21.0413 26020.4 -03501.5 -07.6641 26254.9
 09 10 2013  11 42  -21.0398 26022.2 -03501.7 -07.6641 26256.7
 09 10 2013  11 43  -21.0400 26024.6 -03502.3 -07.6646 26259.3
 09 10 2013  11 44  -21.0416 26026.2 -03502.3 -07.6642 26260.8
 09 10 2013  11 45  -21.0432 26025.8 -03501.5 -07.6626 26260.3
 09 10 2013  11 46  -21.0454 26026.8 -03501.5 -07.6623 26261.3
 09 10 2013  11 47  -21.0475 26026.4 -03501.0 -07.6612 26260.8
 09 10 2013  11 48  -21.0500 26026.1 -03500.5 -07.6603 26260.5
 09 10 2013  11 49  -21.0526 26025.8 -03500.2 -07.6598 26260.2
 09 10 2013  11 50  -21.0543 26026.1 -03500.1 -07.6594 26260.4
 09 10 2013  11 51  -21.0572 26026.2 -03500.0 -07.6591 26260.5
 09 10 2013  11 52  -21.0598 26026.0 -03499.8 -07.6588 26260.3
 09 10 2013  11 53  -21.0623 26025.9 -03499.6 -07.6584 26260.1
 09 10 2013  11 54  -21.0641 26025.8 -03499.4 -07.6580 26260.1
 09 10 2013  11 55  -21.0654 26026.0 -03499.2 -07.6575 26260.2
 09 10 2013  11 56  -21.0677 26026.2 -03499.1 -07.6573 26260.4
 09 10 2013  11 57  -21.0699 26025.7 -03498.8 -07.6567 26259.8
 09 10 2013  11 58  -21.0700 26025.6 -03498.4 -07.6560 26259.7
 09 10 2013  11 59  -21.0704 26027.2 -03498.8 -07.6563 26261.3
 09 10 2013  12 00  -21.0715 26026.6 -03498.2 -07.6552 26260.6
 09 10 2013  12 01  -21.0724 26025.7 -03497.5 -07.6538 26259.6
 09 10 2013  12 02  -21.0723 26026.2 -03497.4 -07.6535 26260.1
 09 10 2013  12 03  -21.0720 26027.0 -03497.4 -07.6534 26261.0
 09 10 2013  12 04  -21.0725 26027.2 -03497.2 -07.6528 26261.1
 09 10 2013  12 05  -21.0726 26027.5 -03496.8 -07.6518 26261.3
 09 10 2013  12 06  -21.0721 26026.3 -03496.0 -07.6504 26260.1
 09 10 2013  12 07  -21.0705 26025.1 -03495.2 -07.6490 26258.8
 09 10 2013  12 08  -21.0704 26026.3 -03495.6 -07.6495 26260.0
 09 10 2013  12 09  -21.0710 26026.3 -03495.5 -07.6493 26260.0
 09 10 2013  12 10  -21.0721 26026.9 -03495.5 -07.6491 26260.5
 09 10 2013  12 11  -21.0731 26028.2 -03495.8 -07.6495 26262.0
 09 10 2013  12 12  -21.0731 26029.1 -03496.0 -07.6496 26262.9
 09 10 2013  12 13  -21.0728 26028.3 -03495.3 -07.6484 26262.0
 09 10 2013  12 14  -21.0726 26028.0 -03494.9 -07.6476 26261.6
 09 10 2013  12 15  -21.0737 26028.0 -03494.7 -07.6472 26261.6
 09 10 2013  12 16  -21.0738 26028.0 -03494.5 -07.6467 26261.5
 09 10 2013  12 17  -21.0742 26027.8 -03494.3 -07.6464 26261.3
 09 10 2013  12 18  -21.0752 26026.8 -03493.8 -07.6455 26260.2
 09 10 2013  12 19  -21.0751 26025.5 -03493.1 -07.6445 26258.9
 09 10 2013  12 20  -21.0745 26025.7 -03493.2 -07.6446 26259.0
 09 10 2013  12 21  -21.0755 26025.6 -03493.3 -07.6447 26259.0
 09 10 2013  12 22  -21.0769 26025.4 -03493.2 -07.6447 26258.8
 09 10 2013  12 23  -21.0772 26025.6 -03493.2 -07.6445 26259.0
 09 10 2013  12 24  -21.0771 26025.9 -03493.2 -07.6445 26259.2
 09 10 2013  12 25  -21.0767 26025.2 -03492.8 -07.6439 26258.5
 09 10 2013  12 26  -21.0768 26026.4 -03493.2 -07.6444 26259.7
 09 10 2013  12 27  -21.0778 26026.2 -03493.0 -07.6440 26259.6
 09 10 2013  12 28  -21.0769 26025.9 -03492.6 -07.6432 26259.2
 09 10 2013  12 29  -21.0770 26026.6 -03492.8 -07.6436 26260.0
 09 10 2013  12 30  -21.0766 26026.2 -03492.5 -07.6429 26259.5
 09 10 2013  12 31  -21.0767 26025.7 -03492.1 -07.6422 26258.9
 09 10 2013  12 32  -21.0775 26027.4 -03492.7 -07.6431 26260.7
 09 10 2013  12 33  -21.0776 26027.8 -03492.7 -07.6429 26261.1
 09 10 2013  12 34  -21.0764 26027.1 -03492.0 -07.6416 26260.3
 09 10 2013  12 35  -21.0756 26026.4 -03491.4 -07.6406 26259.5
 09 10 2013  12 36  -21.0759 26026.4 -03491.3 -07.6403 26259.5
 09 10 2013  12 37  -21.0751 26026.0 -03491.1 -07.6400 26259.1
 09 10 2013  12 38  -21.0742 26027.1 -03491.5 -07.6405 26260.3
 09 10 2013  12 39  -21.0729 26027.0 -03491.2 -07.6399 26260.1
 09 10 2013  12 40  -21.0728 26028.9 -03491.8 -07.6406 26262.1
 09 10 2013  12 41  -21.0719 26030.0 -03492.0 -07.6408 26263.2
 09 10 2013  12 42  -21.0710 26031.9 -03492.4 -07.6411 26265.2
 09 10 2013  12 43  -21.0707 26033.7 -03492.7 -07.6412 26266.9
 09 10 2013  12 44  -21.0701 26034.1 -03492.2 -07.6401 26267.3
 09 10 2013  12 45  -21.0695 26033.5 -03491.5 -07.6386 26266.6
 09 10 2013  12 46  -21.0677 26034.3 -03491.5 -07.6385 26267.3
 09 10 2013  12 47  -21.0670 26035.5 -03491.7 -07.6386 26268.6
 09 10 2013  12 48  -21.0662 26035.7 -03491.4 -07.6379 26268.8
 09 10 2013  12 49  -21.0649 26036.0 -03491.1 -07.6371 26269.0
 09 10 2013  12 50  -21.0652 26036.5 -03491.1 -07.6370 26269.5
 09 10 2013  12 51  -21.0660 26038.0 -03491.6 -07.6376 26271.1
 09 10 2013  12 52  -21.0654 26038.3 -03491.2 -07.6367 26271.3
 09 10 2013  12 53  -21.0654 26038.7 -03491.0 -07.6360 26271.7
 09 10 2013  12 54  -21.0653 26038.9 -03490.6 -07.6352 26271.8
 09 10 2013  12 55  -21.0649 26038.9 -03490.3 -07.6344 26271.7
 09 10 2013  12 56  -21.0637 26038.7 -03489.9 -07.6337 26271.5
 09 10 2013  12 57  -21.0630 26038.8 -03489.8 -07.6335 26271.6
 09 10 2013  12 58  -21.0635 26039.4 -03489.9 -07.6335 26272.2
 09 10 2013  12 59  -21.0642 26040.0 -03489.8 -07.6332 26272.8
 09 10 2013  13 00  -21.0640 26040.5 -03489.8 -07.6330 26273.3
 09 10 2013  13 01  -21.0641 26039.1 -03489.1 -07.6318 26271.8
 09 10 2013  13 02  -21.0625 26039.4 -03489.0 -07.6315 26272.1
 09 10 2013  13 03  -21.0630 26040.3 -03489.3 -07.6320 26273.1
 09 10 2013  13 04  -21.0638 26041.8 -03489.6 -07.6321 26274.6
 09 10 2013  13 05  -21.0643 26042.4 -03489.4 -07.6315 26275.1
 09 10 2013  13 06  -21.0647 26043.1 -03489.4 -07.6313 26275.8
 09 10 2013  13 07  -21.0646 26042.2 -03488.6 -07.6299 26274.9
 09 10 2013  13 08  -21.0628 26042.6 -03488.5 -07.6295 26275.2
 09 10 2013  13 09  -21.0631 26044.2 -03488.8 -07.6297 26276.8
 09 10 2013  13 10  -21.0634 26045.8 -03489.1 -07.6298 26278.5
 09 10 2013  13 11  -21.0634 26044.9 -03488.1 -07.6281 26277.4
 09 10 2013  13 12  -21.0624 26044.8 -03487.7 -07.6272 26277.3
 09 10 2013  13 13  -21.0622 26045.8 -03487.8 -07.6271 26278.3
 09 10 2013  13 14  -21.0610 26044.8 -03487.0 -07.6257 26277.2
 09 10 2013  13 15  -21.0606 26046.6 -03487.6 -07.6264 26279.1
 09 10 2013  13 16  -21.0606 26048.7 -03488.0 -07.6268 26281.2
 09 10 2013  13 17  -21.0619 26048.4 -03487.4 -07.6255 26280.9
 09 10 2013  13 18  -21.0611 26047.7 -03486.7 -07.6242 26280.0
 09 10 2013  13 19  -21.0595 26046.9 -03486.1 -07.6231 26279.2
 09 10 2013  13 20  -21.0591 26048.5 -03486.7 -07.6239 26280.8
 09 10 2013  13 21  -21.0588 26049.4 -03486.8 -07.6239 26281.7
 09 10 2013  13 22  -21.0596 26050.7 -03487.0 -07.6240 26283.0
 09 10 2013  13 23  -21.0590 26049.6 -03486.1 -07.6224 26281.9
 09 10 2013  13 24  -21.0600 26049.3 -03485.8 -07.6218 26281.5
 09 10 2013  13 25  -21.0591 26049.5 -03485.6 -07.6214 26281.6
 09 10 2013  13 26  -21.0591 26049.9 -03485.7 -07.6215 26282.0
 09 10 2013  13 27  -21.0579 26051.2 -03486.0 -07.6215 26283.4
 09 10 2013  13 28  -21.0585 26051.7 -03485.8 -07.6211 26283.8
 09 10 2013  13 29  -21.0584 26052.8 -03486.0 -07.6211 26285.0
 09 10 2013  13 30  -21.0590 26053.4 -03485.9 -07.6207 26285.6
 09 10 2013  13 31  -21.0581 26051.6 -03484.6 -07.6186 26283.6
 09 10 2013  13 32  -21.0567 26051.0 -03484.3 -07.6180 26283.0
 09 10 2013  13 33  -21.0571 26052.4 -03484.8 -07.6188 26284.4
 09 10 2013  13 34  -21.0577 26055.3 -03485.7 -07.6198 26287.4
 09 10 2013  13 35  -21.0577 26056.0 -03485.4 -07.6190 26288.1
 09 10 2013  13 36  -21.0570 26055.3 -03484.7 -07.6177 26287.3
 09 10 2013  13 37  -21.0555 26052.0 -03483.0 -07.6150 26283.8
 09 10 2013  13 38  -21.0545 26051.8 -03483.0 -07.6149 26283.6
 09 10 2013  13 39  -21.0556 26053.4 -03483.7 -07.6161 26285.2
 09 10 2013  13 40  -21.0568 26054.7 -03484.2 -07.6168 26286.6
 09 10 2013  13 41  -21.0561 26055.1 -03484.1 -07.6164 26287.1
 09 10 2013  13 42  -21.0548 26055.8 -03484.1 -07.6162 26287.8
 09 10 2013  13 43  -21.0545 26056.5 -03484.0 -07.6159 26288.4
 09 10 2013  13 44  -21.0534 26055.2 -03483.2 -07.6145 26287.0
 09 10 2013  13 45  -21.0524 26055.5 -03483.2 -07.6144 26287.3
 09 10 2013  13 46  -21.0525 26056.6 -03483.6 -07.6150 26288.4
 09 10 2013  13 47  -21.0513 26057.7 -03483.9 -07.6153 26289.5
 09 10 2013  13 48  -21.0507 26058.4 -03484.0 -07.6153 26290.3
 09 10 2013  13 49  -21.0505 26057.0 -03483.1 -07.6137 26288.8
 09 10 2013  13 50  -21.0508 26056.3 -03482.9 -07.6134 26288.0
 09 10 2013  13 51  -21.0495 26056.9 -03483.1 -07.6136 26288.7
 09 10 2013  13 52  -21.0487 26058.7 -03483.7 -07.6146 26290.5
 09 10 2013  13 53  -21.0485 26059.2 -03483.7 -07.6145 26291.0
 09 10 2013  13 54  -21.0488 26059.8 -03483.7 -07.6142 26291.7
 09 10 2013  13 55  -21.0498 26060.8 -03484.0 -07.6145 26292.6
 09 10 2013  13 56  -21.0491 26062.5 -03484.4 -07.6149 26294.4
 09 10 2013  13 57  -21.0477 26062.4 -03483.9 -07.6139 26294.2
 09 10 2013  13 58  -21.0469 26062.2 -03483.6 -07.6132 26293.9
 09 10 2013  13 59  -21.0464 26062.5 -03483.5 -07.6129 26294.2
 09 10 2013  14 00  -21.0465 26062.4 -03483.3 -07.6126 26294.1
 09 10 2013  14 01  -21.0463 26061.2 -03482.6 -07.6115 26292.9
 09 10 2013  14 02  -21.0446 26061.9 -03482.9 -07.6119 26293.6
 09 10 2013  14 03  -21.0428 26062.5 -03483.2 -07.6124 26294.2
 09 10 2013  14 04  -21.0419 26064.4 -03484.0 -07.6135 26296.3
 09 10 2013  14 05  -21.0417 26065.2 -03484.3 -07.6139 26297.0
 09 10 2013  14 06  -21.0423 26066.7 -03484.7 -07.6144 26298.6
 09 10 2013  14 07  -21.0419 26068.5 -03485.0 -07.6146 26300.4
 09 10 2013  14 08  -21.0414 26068.6 -03484.7 -07.6139 26300.5
 09 10 2013  14 09  -21.0408 26069.0 -03484.6 -07.6136 26300.9
 09 10 2013  14 10  -21.0403 26069.2 -03484.4 -07.6131 26301.1
 09 10 2013  14 11  -21.0398 26069.4 -03484.3 -07.6127 26301.2
 09 10 2013  14 12  -21.0387 26070.2 -03484.4 -07.6127 26302.0
 09 10 2013  14 13  -21.0387 26069.6 -03483.9 -07.6118 26301.4
 09 10 2013  14 14  -21.0385 26069.4 -03483.7 -07.6114 26301.1
 09 10 2013  14 15  -21.0376 26070.6 -03484.2 -07.6122 26302.4
 09 10 2013  14 16  -21.0365 26071.8 -03484.7 -07.6129 26303.6
 09 10 2013  14 17  -21.0348 26071.8 -03484.5 -07.6125 26303.7
 09 10 2013  14 18  -21.0344 26071.7 -03484.3 -07.6121 26303.5
 09 10 2013  14 19  -21.0356 26073.2 -03484.8 -07.6128 26305.0
 09 10 2013  14 20  -21.0369 26073.1 -03484.6 -07.6122 26305.0
 09 10 2013  14 21  -21.0363 26071.2 -03483.5 -07.6105 26302.9
 09 10 2013  14 22  -21.0354 26069.2 -03482.6 -07.6091 26300.8
 09 10 2013  14 23  -21.0363 26068.3 -03482.4 -07.6090 26299.9
 09 10 2013  14 24  -21.0367 26067.6 -03482.3 -07.6090 26299.1
 09 10 2013  14 25  -21.0357 26066.4 -03481.9 -07.6085 26298.0
 09 10 2013  14 26  -21.0349 26065.3 -03481.6 -07.6081 26296.8
 09 10 2013  14 27  -21.0352 26065.9 -03482.2 -07.6092 26297.4
 09 10 2013  14 28  -21.0352 26066.5 -03482.7 -07.6101 26298.1
 09 10 2013  14 29  -21.0354 26066.6 -03482.9 -07.6106 26298.3
 09 10 2013  14 30  -21.0346 26066.2 -03482.7 -07.6103 26297.8
 09 10 2013  14 31  -21.0341 26066.3 -03482.9 -07.6106 26298.0
 09 10 2013  14 32  -21.0345 26066.6 -03483.1 -07.6109 26298.3
 09 10 2013  14 33  -21.0347 26066.1 -03482.9 -07.6106 26297.7
 09 10 2013  14 34  -21.0339 26065.4 -03482.5 -07.6101 26297.0
 09 10 2013  14 35  -21.0338 26065.3 -03482.6 -07.6103 26296.9
 09 10 2013  14 36  -21.0354 26066.4 -03483.3 -07.6114 26298.1
 09 10 2013  14 37  -21.0361 26066.9 -03483.4 -07.6114 26298.6
 09 10 2013  14 38  -21.0352 26065.1 -03482.3 -07.6096 26296.7
 09 10 2013  14 39  -21.0345 26063.0 -03481.4 -07.6083 26294.5
 09 10 2013  14 40  -21.0342 26062.7 -03481.5 -07.6087 26294.2
 09 10 2013  14 41  -21.0348 26062.9 -03481.9 -07.6094 26294.5
 09 10 2013  14 42  -21.0349 26062.1 -03481.6 -07.6090 26293.7
 09 10 2013  14 43  -21.0341 26061.1 -03481.2 -07.6084 26292.6
 09 10 2013  14 44  -21.0341 26060.4 -03481.1 -07.6083 26291.9
 09 10 2013  14 45  -21.0336 26060.9 -03481.5 -07.6091 26292.5
 09 10 2013  14 46  -21.0339 26060.4 -03481.5 -07.6093 26291.9
 09 10 2013  14 47  -21.0340 26060.1 -03481.6 -07.6095 26291.6
 09 10 2013  14 48  -21.0332 26059.9 -03481.5 -07.6094 26291.4
 09 10 2013  14 49  -21.0330 26059.5 -03481.3 -07.6091 26291.1
 09 10 2013  14 50  -21.0335 26059.5 -03481.3 -07.6091 26291.0
 09 10 2013  14 51  -21.0338 26058.6 -03481.0 -07.6086 26290.0
 09 10 2013  14 52  -21.0339 26057.6 -03480.7 -07.6083 26289.1
 09 10 2013  14 53  -21.0337 26057.3 -03480.7 -07.6084 26288.7
 09 10 2013  14 54  -21.0332 26057.0 -03480.8 -07.6086 26288.5
 09 10 2013  14 55  -21.0325 26057.2 -03480.9 -07.6089 26288.7
 09 10 2013  14 56  -21.0318 26057.8 -03481.2 -07.6093 26289.3
 09 10 2013  14 57  -21.0312 26057.8 -03481.2 -07.6095 26289.3
 09 10 2013  14 58  -21.0306 26058.8 -03481.8 -07.6103 26290.4
 09 10 2013  14 59  -21.0298 26060.4 -03482.6 -07.6116 26292.1
 09 10 2013  15 00  -21.0284 26062.7 -03483.5 -07.6129 26294.4
 09 10 2013  15 01  -21.0271 26065.0 -03484.4 -07.6142 26296.9
 09 10 2013  15 02  -21.0263 26066.5 -03484.8 -07.6147 26298.4
 09 10 2013  15 03  -21.0255 26068.2 -03485.2 -07.6150 26300.2
 09 10 2013  15 04  -21.0255 26070.2 -03485.7 -07.6155 26302.2
 09 10 2013  15 05  -21.0255 26070.6 -03485.4 -07.6148 26302.5
 09 10 2013  15 06  -21.0263 26071.2 -03485.4 -07.6145 26303.1
 09 10 2013  15 07  -21.0266 26071.0 -03484.9 -07.6136 26302.8
 09 10 2013  15 08  -21.0265 26069.8 -03484.1 -07.6122 26301.6
 09 10 2013  15 09  -21.0263 26068.5 -03483.4 -07.6111 26300.2
 09 10 2013  15 10  -21.0259 26067.1 -03482.9 -07.6103 26298.7
 09 10 2013  15 11  -21.0264 26066.9 -03482.9 -07.6103 26298.6
 09 10 2013  15 12  -21.0269 26065.9 -03482.5 -07.6098 26297.6
 09 10 2013  15 13  -21.0275 26065.1 -03482.3 -07.6095 26296.7
 09 10 2013  15 14  -21.0278 26064.5 -03482.2 -07.6096 26296.1
 09 10 2013  15 15  -21.0273 26063.8 -03482.1 -07.6095 26295.3
 09 10 2013  15 16  -21.0275 26064.6 -03482.6 -07.6104 26296.2
 09 10 2013  15 17  -21.0282 26064.4 -03482.6 -07.6105 26296.0
 09 10 2013  15 18  -21.0288 26064.5 -03482.7 -07.6106 26296.2
 09 10 2013  15 19  -21.0287 26065.4 -03483.1 -07.6113 26297.1
 09 10 2013  15 20  -21.0280 26066.6 -03483.8 -07.6125 26298.4
 09 10 2013  15 21  -21.0273 26068.7 -03484.8 -07.6140 26300.6
 09 10 2013  15 22  -21.0289 26070.3 -03485.4 -07.6149 26302.3
 09 10 2013  15 23  -21.0313 26071.0 -03485.4 -07.6147 26303.0
 09 10 2013  15 24  -21.0306 26071.3 -03485.0 -07.6138 26303.2
 09 10 2013  15 25  -21.0283 26071.7 -03484.9 -07.6133 26303.5
 09 10 2013  15 26  -21.0264 26072.3 -03485.1 -07.6137 26304.2
 09 10 2013  15 27  -21.0248 26071.7 -03484.9 -07.6134 26303.5
 09 10 2013  15 28  -21.0242 26071.8 -03484.8 -07.6130 26303.6
 09 10 2013  15 29  -21.0246 26072.9 -03485.0 -07.6131 26304.8
 09 10 2013  15 30  -21.0253 26074.6 -03485.3 -07.6134 26306.5
 09 10 2013  15 31  -21.0246 26075.1 -03485.1 -07.6129 26307.0
 09 10 2013  15 32  -21.0246 26076.2 -03485.4 -07.6132 26308.1
 09 10 2013  15 33  -21.0250 26077.2 -03485.9 -07.6138 26309.1
 09 10 2013  15 34  -21.0254 26077.7 -03485.9 -07.6138 26309.6
 09 10 2013  15 35  -21.0254 26077.0 -03485.4 -07.6129 26308.9
 09 10 2013  15 36  -21.0253 26078.4 -03486.0 -07.6138 26310.4
 09 10 2013  15 37  -21.0250 26081.0 -03487.1 -07.6155 26313.1
 09 10 2013  15 38  -21.0241 26080.9 -03486.6 -07.6143 26312.9
 09 10 2013  15 39  -21.0248 26078.6 -03485.0 -07.6115 26310.4
 09 10 2013  15 40  -21.0241 26077.8 -03484.4 -07.6105 26309.6
 09 10 2013  15 41  -21.0247 26075.9 -03483.7 -07.6095 26307.6
 09 10 2013  15 42  -21.0262 26075.1 -03483.6 -07.6096 26306.8
 09 10 2013  15 43  -21.0275 26075.3 -03483.7 -07.6098 26307.0
 09 10 2013  15 44  -21.0260 26075.1 -03483.4 -07.6090 26306.8
 09 10 2013  15 45  -21.0244 26073.8 -03482.7 -07.6081 26305.4
 09 10 2013  15 46  -21.0243 26074.4 -03483.4 -07.6092 26306.1
 09 10 2013  15 47  -21.0284 26075.3 -03484.4 -07.6112 26307.0
 09 10 2013  15 48  -21.0275 26074.8 -03484.0 -07.6105 26306.5
 09 10 2013  15 49  -21.0243 26074.2 -03483.2 -07.6090 26305.9
 09 10 2013  15 50  -21.0251 26075.8 -03484.1 -07.6105 26307.5
 09 10 2013  15 51  -21.0265 26075.3 -03484.4 -07.6111 26307.1
 09 10 2013  15 52  -21.0283 26072.4 -03483.1 -07.6093 26304.1
 09 10 2013  15 53  -21.0299 26072.2 -03483.1 -07.6094 26303.9
 09 10 2013  15 54  -21.0293 26070.6 -03482.5 -07.6084 26302.2
 09 10 2013  15 55  -21.0289 26071.3 -03482.9 -07.6091 26303.0
 09 10 2013  15 56  -21.0310 26073.3 -03484.1 -07.6111 26305.1
 09 10 2013  15 57  -21.0335 26069.3 -03482.4 -07.6087 26300.9
 09 10 2013  15 58  -21.0338 26062.8 -03479.2 -07.6036 26294.0
 09 10 2013  15 59  -21.0341 26061.2 -03479.2 -07.6041 26292.4
 09 10 2013  16 00  -21.0356 26061.3 -03480.1 -07.6060 26292.6
 09 10 2013  16 01  -21.0360 26061.9 -03480.8 -07.6073 26293.3
 09 10 2013  16 02  -21.0379 26062.6 -03481.5 -07.6086 26294.1
 09 10 2013  16 03  -21.0381 26063.6 -03482.0 -07.6095 26295.2
 09 10 2013  16 04  -21.0379 26065.0 -03482.7 -07.6106 26296.6
 09 10 2013  16 05  -21.0386 26065.3 -03483.0 -07.6110 26297.0
 09 10 2013  16 06  -21.0407 26067.0 -03483.5 -07.6117 26298.8
 09 10 2013  16 07  -21.0417 26068.3 -03483.8 -07.6120 26300.0
 09 10 2013  16 08  -21.0430 26069.8 -03484.1 -07.6122 26301.6
 09 10 2013  16 09  -21.0461 26069.4 -03483.5 -07.6110 26301.1
 09 10 2013  16 10  -21.0471 26067.7 -03482.2 -07.6087 26299.2
 09 10 2013  16 11  -21.0476 26065.6 -03481.2 -07.6071 26297.1
 09 10 2013  16 12  -21.0459 26065.0 -03480.9 -07.6066 26296.4
 09 10 2013  16 13  -21.0468 26065.9 -03481.5 -07.6076 26297.4
 09 10 2013  16 14  -21.0480 26067.4 -03482.1 -07.6084 26298.9
 09 10 2013  16 15  -21.0478 26068.0 -03482.1 -07.6085 26299.5
 09 10 2013  16 16  -21.0492 26069.2 -03482.5 -07.6089 26300.8
 09 10 2013  16 17  -21.0508 26067.3 -03481.5 -07.6073 26298.8
 09 10 2013  16 18  -21.0519 26068.9 -03482.0 -07.6080 26300.5
 09 10 2013  16 19  -21.0545 26068.1 -03481.4 -07.6069 26299.5
 09 10 2013  16 20  -21.0547 26066.8 -03480.1 -07.6044 26298.1
 09 10 2013  16 21  -21.0512 26062.9 -03478.3 -07.6016 26294.0
 09 10 2013  16 22  -21.0515 26063.9 -03479.2 -07.6033 26295.1
 09 10 2013  16 23  -21.0527 26064.3 -03479.8 -07.6045 26295.6
 09 10 2013  16 24  -21.0535 26062.8 -03479.3 -07.6038 26294.0
 09 10 2013  16 25  -21.0538 26061.8 -03478.9 -07.6033 26292.9
 09 10 2013  16 26  -21.0540 26060.1 -03478.4 -07.6027 26291.3
 09 10 2013  16 27  -21.0535 26058.7 -03477.9 -07.6020 26289.7
 09 10 2013  16 28  -21.0546 26059.4 -03478.5 -07.6031 26290.5
 09 10 2013  16 29  -21.0579 26062.0 -03480.1 -07.6058 26293.4
 09 10 2013  16 30  -21.0567 26062.8 -03480.2 -07.6058 26294.1
 09 10 2013  16 31  -21.0558 26061.3 -03479.3 -07.6042 26292.5
 09 10 2013  16 32  -21.0577 26061.6 -03479.5 -07.6045 26292.8
 09 10 2013  16 33  -21.0611 26061.8 -03479.4 -07.6043 26293.0
 09 10 2013  16 34  -21.0611 26059.6 -03477.8 -07.6016 26290.6
 09 10 2013  16 35  -21.0608 26058.3 -03476.9 -07.5999 26289.2
 09 10 2013  16 36  -21.0618 26058.3 -03477.0 -07.6001 26289.3
 09 10 2013  16 37  -21.0609 26058.6 -03476.8 -07.5996 26289.5
 09 10 2013  16 38  -21.0595 26058.9 -03476.4 -07.5986 26289.8
 09 10 2013  16 39  -21.0635 26057.7 -03475.6 -07.5974 26288.5
 09 10 2013  16 40  -21.0675 26053.4 -03473.7 -07.5944 26283.9
 09 10 2013  16 41  -21.0676 26053.0 -03473.7 -07.5945 26283.6
 09 10 2013  16 42  -21.0673 26055.9 -03475.1 -07.5966 26286.6
 09 10 2013  16 43  -21.0664 26054.1 -03474.1 -07.5951 26284.7
 09 10 2013  16 44  -21.0681 26052.8 -03473.5 -07.5941 26283.3
 09 10 2013  16 45  -21.0711 26055.9 -03475.3 -07.5971 26286.7
 09 10 2013  16 46  -21.0739 26057.6 -03475.6 -07.5973 26288.4
 09 10 2013  16 47  -21.0752 26056.6 -03474.5 -07.5951 26287.2
 09 10 2013  16 48  -21.0731 26053.5 -03472.5 -07.5919 26283.9
 09 10 2013  16 49  -21.0748 26052.4 -03472.0 -07.5911 26282.7
 09 10 2013  16 50  -21.0770 26052.5 -03472.5 -07.5920 26282.9
 09 10 2013  16 51  -21.0789 26052.3 -03472.3 -07.5918 26282.7
 09 10 2013  16 52  -21.0821 26053.3 -03472.7 -07.5922 26283.8
 09 10 2013  16 53  -21.0841 26054.0 -03472.6 -07.5918 26284.4
 09 10 2013  16 54  -21.0844 26048.4 -03469.5 -07.5869 26278.5
 09 10 2013  16 55  -21.0836 26045.6 -03468.0 -07.5843 26275.4
 09 10 2013  16 56  -21.0833 26046.8 -03468.9 -07.5859 26276.8
 09 10 2013  16 57  -21.0829 26049.1 -03470.1 -07.5879 26279.2
 09 10 2013  16 58  -21.0850 26051.5 -03471.3 -07.5897 26281.7
 09 10 2013  16 59  -21.0863 26051.9 -03471.3 -07.5897 26282.1
 09 10 2013  17 00  -21.0878 26057.9 -03473.9 -07.5937 26288.4
 09 10 2013  17 01  -21.0854 26058.3 -03473.1 -07.5918 26288.8
 09 10 2013  17 02  -21.0805 26054.3 -03470.1 -07.5865 26284.4
 09 10 2013  17 03  -21.0787 26045.4 -03465.7 -07.5795 26274.9
 09 10 2013  17 04  -21.0817 26039.9 -03463.6 -07.5766 26269.2
 09 10 2013  17 05  -21.0847 26037.2 -03463.2 -07.5765 26266.6
 09 10 2013  17 06  -21.0839 26037.5 -03463.9 -07.5778 26266.9
 09 10 2013  17 07  -21.0864 26038.0 -03464.9 -07.5798 26267.5
 09 10 2013  17 08  -21.0890 26038.7 -03465.8 -07.5816 26268.3
 09 10 2013  17 09  -21.0905 26039.0 -03466.2 -07.5824 26268.7
 09 10 2013  17 10  -21.0925 26039.9 -03466.9 -07.5836 26269.7
 09 10 2013  17 11  -21.0945 26039.6 -03466.9 -07.5838 26269.4
 09 10 2013  17 12  -21.0955 26038.6 -03466.6 -07.5833 26268.4
 09 10 2013  17 13  -21.0967 26037.8 -03466.4 -07.5832 26267.6
 09 10 2013  17 14  -21.0982 26037.3 -03466.3 -07.5831 26267.0
 09 10 2013  17 15  -21.0992 26037.0 -03466.4 -07.5834 26266.7
 09 10 2013  17 16  -21.1002 26036.8 -03466.6 -07.5838 26266.6
 09 10 2013  17 17  -21.1005 26037.3 -03466.9 -07.5843 26267.1
 09 10 2013  17 18  -21.1010 26037.3 -03467.0 -07.5845 26267.1
 09 10 2013  17 19  -21.1012 26037.3 -03466.9 -07.5845 26267.1
 09 10 2013  17 20  -21.1012 26037.5 -03467.1 -07.5847 26267.3
 09 10 2013  17 21  -21.1013 26038.2 -03467.3 -07.5851 26268.1
 09 10 2013  17 22  -21.1009 26039.0 -03467.7 -07.5855 26268.9
 09 10 2013  17 23  -21.1001 26040.5 -03468.2 -07.5863 26270.5
 09 10 2013  17 24  -21.0989 26043.2 -03469.4 -07.5882 26273.3
 09 10 2013  17 25  -21.0981 26045.8 -03470.5 -07.5896 26275.9
 09 10 2013  17 26  -21.0975 26045.3 -03469.8 -07.5883 26275.4
 09 10 2013  17 27  -21.0976 26043.4 -03468.5 -07.5861 26273.4
 09 10 2013  17 28  -21.0972 26042.3 -03467.8 -07.5849 26272.1
 09 10 2013  17 29  -21.0975 26042.5 -03468.0 -07.5853 26272.4
 09 10 2013  17 30  -21.0990 26043.5 -03468.6 -07.5863 26273.5
 09 10 2013  17 31  -21.0998 26044.5 -03469.0 -07.5869 26274.5
 09 10 2013  17 32  -21.1019 26044.8 -03469.2 -07.5871 26274.9
 09 10 2013  17 33  -21.1014 26043.3 -03468.1 -07.5853 26273.2
 09 10 2013  17 34  -21.1026 26043.1 -03467.9 -07.5849 26272.9
 09 10 2013  17 35  -21.1032 26039.5 -03466.2 -07.5822 26269.2
 09 10 2013  17 36  -21.1020 26036.4 -03464.6 -07.5796 26265.9
 09 10 2013  17 37  -21.1015 26033.8 -03463.7 -07.5784 26263.2
 09 10 2013  17 38  -21.1011 26031.4 -03462.9 -07.5773 26260.7
 09 10 2013  17 39  -21.1017 26029.9 -03462.7 -07.5773 26259.2
 09 10 2013  17 40  -21.1027 26030.0 -03463.2 -07.5785 26259.4
 09 10 2013  17 41  -21.1043 26030.7 -03464.0 -07.5800 26260.2
 09 10 2013  17 42  -21.1059 26030.5 -03464.3 -07.5808 26260.0
 09 10 2013  17 43  -21.1067 26030.3 -03464.5 -07.5813 26259.9
 09 10 2013  17 44  -21.1072 26030.9 -03465.0 -07.5821 26260.5
 09 10 2013  17 45  -21.1076 26031.2 -03465.3 -07.5827 26260.9
 09 10 2013  17 46  -21.1077 26031.4 -03465.5 -07.5830 26261.1
 09 10 2013  17 47  -21.1079 26031.3 -03465.5 -07.5830 26261.0
 09 10 2013  17 48  -21.1077 26030.7 -03465.2 -07.5827 26260.3
 09 10 2013  17 49  -21.1072 26030.1 -03465.1 -07.5825 26259.8
 09 10 2013  17 50  -21.1069 26030.0 -03465.1 -07.5825 26259.6
 09 10 2013  17 51  -21.1066 26030.1 -03465.2 -07.5829 26259.8
 09 10 2013  17 52  -21.1063 26029.9 -03465.2 -07.5829 26259.5
 09 10 2013  17 53  -21.1060 26029.5 -03465.0 -07.5826 26259.1
 09 10 2013  17 54  -21.1053 26029.0 -03464.8 -07.5823 26258.6
 09 10 2013  17 55  -21.1056 26028.6 -03464.7 -07.5821 26258.2
 09 10 2013  17 56  -21.1054 26028.3 -03464.6 -07.5821 26257.8
 09 10 2013  17 57  -21.1049 26028.2 -03464.8 -07.5824 26257.8
 09 10 2013  17 58  -21.1044 26027.7 -03464.7 -07.5823 26257.3
 09 10 2013  17 59  -21.1041 26026.8 -03464.4 -07.5819 26256.4
 09 10 2013  18 00  -21.1043 26026.5 -03464.4 -07.5820 26256.0
 09 10 2013  18 01  -21.1046 26026.3 -03464.4 -07.5822 26255.8
 09 10 2013  18 02  -21.1057 26024.5 -03463.6 -07.5810 26254.0
 09 10 2013  18 03  -21.1052 26023.2 -03463.2 -07.5805 26252.6
 09 10 2013  18 04  -21.1044 26022.9 -03463.4 -07.5810 26252.3
 09 10 2013  18 05  -21.1035 26023.1 -03463.9 -07.5819 26252.6
 09 10 2013  18 06  -21.1024 26023.0 -03464.1 -07.5825 26252.6
 09 10 2013  18 07  -21.1019 26022.3 -03463.9 -07.5822 26251.8
 09 10 2013  18 08  -21.1015 26022.3 -03464.1 -07.5827 26251.8
 09 10 2013  18 09  -21.1010 26022.0 -03464.2 -07.5829 26251.5
 09 10 2013  18 10  -21.1004 26021.8 -03464.2 -07.5831 26251.3
 09 10 2013  18 11  -21.1001 26021.3 -03464.3 -07.5833 26250.9
 09 10 2013  18 12  -21.0997 26021.1 -03464.4 -07.5835 26250.7
 09 10 2013  18 13  -21.0994 26021.3 -03464.7 -07.5842 26250.9
 09 10 2013  18 14  -21.0990 26021.5 -03465.0 -07.5849 26251.1
 09 10 2013  18 15  -21.0986 26020.7 -03464.9 -07.5848 26250.4
 09 10 2013  18 16  -21.0982 26019.8 -03464.7 -07.5846 26249.5
 09 10 2013  18 17  -21.0981 26019.3 -03464.7 -07.5847 26249.0
 09 10 2013  18 18  -21.0974 26018.9 -03464.8 -07.5851 26248.6
 09 10 2013  18 19  -21.0967 26018.3 -03464.8 -07.5853 26248.0
 09 10 2013  18 20  -21.0959 26018.3 -03465.1 -07.5859 26248.0
 09 10 2013  18 21  -21.0954 26017.9 -03465.2 -07.5863 26247.7
 09 10 2013  18 22  -21.0945 26017.5 -03465.2 -07.5865 26247.3
 09 10 2013  18 23  -21.0942 26017.6 -03465.6 -07.5873 26247.4
 09 10 2013  18 24  -21.0938 26017.5 -03465.8 -07.5878 26247.3
 09 10 2013  18 25  -21.0933 26017.4 -03466.1 -07.5884 26247.3
 09 10 2013  18 26  -21.0934 26016.2 -03465.8 -07.5880 26246.0
 09 10 2013  18 27  -21.0926 26014.1 -03465.1 -07.5871 26243.9
 09 10 2013  18 28  -21.0918 26013.0 -03465.0 -07.5872 26242.8
 09 10 2013  18 29  -21.0914 26013.4 -03465.7 -07.5886 26243.3
 09 10 2013  18 30  -21.0910 26013.9 -03466.4 -07.5900 26243.9
 09 10 2013  18 31  -21.0909 26014.2 -03466.9 -07.5910 26244.2
 09 10 2013  18 32  -21.0906 26014.1 -03467.2 -07.5917 26244.1
 09 10 2013  18 33  -21.0902 26014.0 -03467.5 -07.5923 26244.1
 09 10 2013  18 34  -21.0899 26013.9 -03467.8 -07.5930 26244.0
 09 10 2013  18 35  -21.0894 26013.6 -03468.0 -07.5936 26243.8
 09 10 2013  18 36  -21.0889 26013.3 -03468.1 -07.5940 26243.4
 09 10 2013  18 37  -21.0884 26013.4 -03468.5 -07.5948 26243.7
 09 10 2013  18 38  -21.0880 26013.4 -03468.8 -07.5954 26243.7
 09 10 2013  18 39  -21.0875 26013.3 -03469.1 -07.5960 26243.6
 09 10 2013  18 40  -21.0871 26013.4 -03469.4 -07.5967 26243.7
 09 10 2013  18 41  -21.0867 26013.1 -03469.6 -07.5971 26243.5
 09 10 2013  18 42  -21.0861 26013.3 -03469.9 -07.5979 26243.7
 09 10 2013  18 43  -21.0860 26013.6 -03470.4 -07.5988 26244.1
 09 10 2013  18 44  -21.0853 26013.4 -03470.7 -07.5994 26243.9
 09 10 2013  18 45  -21.0846 26013.2 -03470.9 -07.5999 26243.8
 09 10 2013  18 46  -21.0841 26013.0 -03471.1 -07.6005 26243.5
 09 10 2013  18 47  -21.0837 26012.9 -03471.4 -07.6010 26243.5
 09 10 2013  18 48  -21.0834 26012.8 -03471.6 -07.6017 26243.4
 09 10 2013  18 49  -21.0831 26012.6 -03471.8 -07.6022 26243.2
 09 10 2013  18 50  -21.0826 26012.5 -03472.1 -07.6028 26243.2
 09 10 2013  18 51  -21.0821 26012.5 -03472.4 -07.6034 26243.2
 09 10 2013  18 52  -21.0816 26012.4 -03472.6 -07.6040 26243.2
 09 10 2013  18 53  -21.0809 26012.5 -03472.9 -07.6046 26243.4
 09 10 2013  18 54  -21.0803 26012.7 -03473.3 -07.6053 26243.5
 09 10 2013  18 55  -21.0799 26012.5 -03473.5 -07.6058 26243.4
 09 10 2013  18 56  -21.0794 26012.5 -03473.8 -07.6064 26243.4
 09 10 2013  18 57  -21.0790 26012.4 -03474.0 -07.6068 26243.4
 09 10 2013  18 58  -21.0786 26012.0 -03474.0 -07.6071 26242.9
 09 10 2013  18 59  -21.0781 26011.9 -03474.3 -07.6076 26242.9
 09 10 2013  19 00  -21.0776 26011.9 -03474.6 -07.6083 26242.9
 09 10 2013  19 01  -21.0772 26011.6 -03474.7 -07.6087 26242.7
 09 10 2013  19 02  -21.0769 26011.2 -03474.8 -07.6091 26242.3
 09 10 2013  19 03  -21.0766 26011.2 -03475.1 -07.6096 26242.3
 09 10 2013  19 04  -21.0761 26011.4 -03475.5 -07.6104 26242.5
 09 10 2013  19 05  -21.0759 26011.3 -03475.6 -07.6108 26242.4
 09 10 2013  19 06  -21.0755 26011.1 -03475.8 -07.6112 26242.4
 09 10 2013  19 07  -21.0750 26011.0 -03476.0 -07.6116 26242.2
 09 10 2013  19 08  -21.0745 26010.9 -03476.2 -07.6121 26242.1
 09 10 2013  19 09  -21.0739 26010.8 -03476.3 -07.6124 26242.1
 09 10 2013  19 10  -21.0735 26010.7 -03476.5 -07.6128 26242.0
 09 10 2013  19 11  -21.0731 26010.6 -03476.7 -07.6132 26241.9
 09 10 2013  19 12  -21.0727 26010.4 -03476.8 -07.6136 26241.8
 09 10 2013  19 13  -21.0722 26010.1 -03476.9 -07.6138 26241.4
 09 10 2013  19 14  -21.0718 26010.1 -03477.1 -07.6143 26241.5
 09 10 2013  19 15  -21.0714 26010.1 -03477.3 -07.6148 26241.5
 09 10 2013  19 16  -21.0710 26010.0 -03477.5 -07.6152 26241.5
 09 10 2013  19 17  -21.0703 26010.3 -03477.8 -07.6158 26241.8
 09 10 2013  19 18  -21.0698 26010.4 -03478.1 -07.6163 26241.9
 09 10 2013  19 19  -21.0693 26010.2 -03478.2 -07.6166 26241.7
 09 10 2013  19 20  -21.0687 26010.2 -03478.4 -07.6170 26241.7
 09 10 2013  19 21  -21.0680 26010.4 -03478.7 -07.6176 26242.0
 09 10 2013  19 22  -21.0674 26010.4 -03478.9 -07.6181 26242.0
 09 10 2013  19 23  -21.0668 26010.5 -03479.1 -07.6185 26242.1
 09 10 2013  19 24  -21.0662 26011.0 -03479.6 -07.6194 26242.7
 09 10 2013  19 25  -21.0653 26011.9 -03480.2 -07.6205 26243.7
 09 10 2013  19 26  -21.0647 26012.2 -03480.5 -07.6210 26244.0
 09 10 2013  19 27  -21.0643 26011.3 -03480.2 -07.6207 26243.1
 09 10 2013  19 28  -21.0638 26011.2 -03480.3 -07.6210 26243.0
 09 10 2013  19 29  -21.0633 26011.5 -03480.7 -07.6217 26243.3
 09 10 2013  19 30  -21.0630 26011.5 -03480.9 -07.6221 26243.4
 09 10 2013  19 31  -21.0626 26011.8 -03481.3 -07.6229 26243.7
 09 10 2013  19 32  -21.0621 26012.1 -03481.6 -07.6235 26244.1
 09 10 2013  19 33  -21.0619 26012.1 -03481.8 -07.6238 26244.1
 09 10 2013  19 34  -21.0616 26011.6 -03481.7 -07.6238 26243.6
 09 10 2013  19 35  -21.0613 26011.2 -03481.7 -07.6239 26243.1
 09 10 2013  19 36  -21.0609 26011.2 -03481.9 -07.6243 26243.2
 09 10 2013  19 37  -21.0607 26011.8 -03482.4 -07.6252 26243.9
 09 10 2013  19 38  -21.0609 26011.3 -03482.3 -07.6253 26243.3
 09 10 2013  19 39  -21.0602 26011.0 -03482.4 -07.6255 26243.0
 09 10 2013  19 40  -21.0596 26010.7 -03482.5 -07.6259 26242.8
 09 10 2013  19 41  -21.0591 26010.6 -03482.7 -07.6262 26242.8
 09 10 2013  19 42  -21.0588 26010.5 -03482.8 -07.6265 26242.7
 09 10 2013  19 43  -21.0587 26009.8 -03482.7 -07.6264 26241.9
 09 10 2013  19 44  -21.0586 26008.5 -03482.2 -07.6259 26240.6
 09 10 2013  19 45  -21.0583 26007.3 -03481.8 -07.6253 26239.4
 09 10 2013  19 46  -21.0580 26006.2 -03481.5 -07.6250 26238.2
 09 10 2013  19 47  -21.0575 26005.8 -03481.5 -07.6251 26237.8
 09 10 2013  19 48  -21.0569 26005.8 -03481.8 -07.6257 26237.8
 09 10 2013  19 49  -21.0562 26005.9 -03482.1 -07.6264 26238.0
 09 10 2013  19 50  -21.0554 26006.2 -03482.4 -07.6270 26238.3
 09 10 2013  19 51  -21.0547 26006.3 -03482.7 -07.6276 26238.4
 09 10 2013  19 52  -21.0542 26006.5 -03483.1 -07.6282 26238.8
 09 10 2013  19 53  -21.0536 26006.6 -03483.2 -07.6286 26238.8
 09 10 2013  19 54  -21.0531 26006.6 -03483.4 -07.6291 26238.8
 09 10 2013  19 55  -21.0526 26006.7 -03483.7 -07.6296 26239.0
 09 10 2013  19 56  -21.0520 26006.7 -03483.9 -07.6299 26239.0
 09 10 2013  19 57  -21.0514 26006.8 -03484.1 -07.6303 26239.1
 09 10 2013  19 58  -21.0508 26006.7 -03484.2 -07.6306 26239.0
 09 10 2013  19 59  -21.0500 26006.7 -03484.3 -07.6309 26239.0
 09 10 2013  20 00  -21.0493 26006.9 -03484.5 -07.6313 26239.3
 09 10 2013  20 01  -21.0486 26007.2 -03484.8 -07.6318 26239.6
 09 10 2013  20 02  -21.0480 26007.2 -03484.9 -07.6321 26239.6
 09 10 2013  20 03  -21.0474 26007.1 -03485.0 -07.6323 26239.6
 09 10 2013  20 04  -21.0469 26007.2 -03485.2 -07.6327 26239.7
 09 10 2013  20 05  -21.0467 26006.9 -03485.2 -07.6328 26239.4
 09 10 2013  20 06  -21.0460 26007.4 -03485.6 -07.6334 26240.0
 09 10 2013  20 07  -21.0453 26008.1 -03486.1 -07.6342 26240.7
 09 10 2013  20 08  -21.0448 26008.3 -03486.2 -07.6346 26240.9
 09 10 2013  20 09  -21.0442 26008.6 -03486.4 -07.6349 26241.2
 09 10 2013  20 10  -21.0435 26008.7 -03486.6 -07.6352 26241.3
 09 10 2013  20 11  -21.0430 26008.9 -03486.8 -07.6356 26241.6
 09 10 2013  20 12  -21.0423 26009.1 -03486.9 -07.6359 26241.8
 09 10 2013  20 13  -21.0417 26009.3 -03487.1 -07.6361 26242.0
 09 10 2013  20 14  -21.0411 26009.4 -03487.2 -07.6363 26242.1
 09 10 2013  20 15  -21.0405 26009.5 -03487.3 -07.6366 26242.3
 09 10 2013  20 16  -21.0399 26009.6 -03487.4 -07.6368 26242.3
 09 10 2013  20 17  -21.0394 26009.5 -03487.4 -07.6368 26242.3
 09 10 2013  20 18  -21.0389 26009.8 -03487.6 -07.6372 26242.6
 09 10 2013  20 19  -21.0384 26010.7 -03488.2 -07.6381 26243.5
 09 10 2013  20 20  -21.0377 26011.9 -03488.9 -07.6392 26244.8
 09 10 2013  20 21  -21.0373 26012.3 -03489.2 -07.6397 26245.3
 09 10 2013  20 22  -21.0369 26013.0 -03489.6 -07.6404 26246.1
 09 10 2013  20 23  -21.0364 26013.6 -03489.9 -07.6409 26246.6
 09 10 2013  20 24  -21.0358 26013.8 -03490.0 -07.6412 26246.8
 09 10 2013  20 25  -21.0355 26013.9 -03490.1 -07.6414 26247.0
 09 10 2013  20 26  -21.0368 26013.7 -03490.1 -07.6413 26246.8
 09 10 2013  20 27  -21.0378 26013.5 -03490.1 -07.6415 26246.6
 09 10 2013  20 28  -21.0377 26013.5 -03490.2 -07.6416 26246.6
 09 10 2013  20 29  -21.0383 26013.3 -03490.1 -07.6415 26246.3
 09 10 2013  20 30  -21.0389 26012.9 -03490.0 -07.6413 26245.9
 09 10 2013  20 31  -21.0388 26012.5 -03489.8 -07.6411 26245.6
 09 10 2013  20 32  -21.0365 26012.5 -03489.8 -07.6410 26245.6
 09 10 2013  20 33  -21.0348 26012.3 -03489.7 -07.6409 26245.4
 09 10 2013  20 34  -21.0345 26011.9 -03489.6 -07.6407 26245.0
 09 10 2013  20 35  -21.0341 26011.7 -03489.5 -07.6407 26244.7
 09 10 2013  20 36  -21.0336 26011.6 -03489.5 -07.6407 26244.6
 09 10 2013  20 37  -21.0330 26011.7 -03489.7 -07.6410 26244.7
 09 10 2013  20 38  -21.0324 26012.0 -03489.9 -07.6415 26245.1
 09 10 2013  20 39  -21.0318 26012.4 -03490.2 -07.6420 26245.5
 09 10 2013  20 40  -21.0313 26012.8 -03490.5 -07.6426 26246.0
 09 10 2013  20 41  -21.0309 26013.1 -03490.8 -07.6430 26246.3
 09 10 2013  20 42  -21.0307 26013.2 -03490.9 -07.6433 26246.4
 09 10 2013  20 43  -21.0305 26013.2 -03491.1 -07.6436 26246.4
 09 10 2013  20 44  -21.0303 26013.4 -03491.2 -07.6438 26246.6
 09 10 2013  20 45  -21.0301 26013.5 -03491.3 -07.6440 26246.7
 09 10 2013  20 46  -21.0301 26013.4 -03491.3 -07.6441 26246.6
 09 10 2013  20 47  -21.0301 26012.9 -03491.2 -07.6439 26246.1
 09 10 2013  20 48  -21.0301 26012.8 -03491.1 -07.6439 26246.0
 09 10 2013  20 49  -21.0298 26013.0 -03491.3 -07.6442 26246.3
 09 10 2013  20 50  -21.0293 26013.6 -03491.6 -07.6447 26246.9
 09 10 2013  20 51  -21.0287 26014.6 -03492.1 -07.6455 26247.9
 09 10 2013  20 52  -21.0282 26015.5 -03492.6 -07.6463 26248.9
 09 10 2013  20 53  -21.0276 26016.7 -03493.2 -07.6473 26250.2
 09 10 2013  20 54  -21.0273 26017.7 -03493.8 -07.6482 26251.2
 09 10 2013  20 55  -21.0269 26018.5 -03494.2 -07.6488 26252.0
 09 10 2013  20 56  -21.0267 26018.6 -03494.2 -07.6488 26252.2
 09 10 2013  20 57  -21.0269 26018.3 -03494.1 -07.6487 26251.9
 09 10 2013  20 58  -21.0270 26018.6 -03494.2 -07.6487 26252.2
 09 10 2013  20 59  -21.0267 26018.6 -03494.2 -07.6488 26252.2
 09 10 2013  21 00  -21.0267 26018.1 -03493.9 -07.6483 26251.6
 09 10 2013  21 01  -21.0265 26018.0 -03493.7 -07.6480 26251.5
 09 10 2013  21 02  -21.0260 26019.5 -03494.4 -07.6491 26253.1
 09 10 2013  21 03  -21.0244 26020.2 -03494.8 -07.6497 26253.8
 09 10 2013  21 04  -21.0237 26020.1 -03494.8 -07.6497 26253.8
 09 10 2013  21 05  -21.0239 26020.5 -03495.0 -07.6501 26254.2
 09 10 2013  21 06  -21.0240 26022.2 -03495.9 -07.6514 26255.9
 09 10 2013  21 07  -21.0229 26024.1 -03496.8 -07.6529 26257.9
 09 10 2013  21 08  -21.0213 26024.0 -03496.9 -07.6530 26257.9
 09 10 2013  21 09  -21.0219 26023.3 -03496.4 -07.6523 26257.1
 09 10 2013  21 10  -21.0221 26024.8 -03497.1 -07.6532 26258.8
 09 10 2013  21 11  -21.0210 26026.5 -03497.8 -07.6543 26260.5
 09 10 2013  21 12  -21.0199 26028.2 -03498.6 -07.6555 26262.2
 09 10 2013  21 13  -21.0194 26030.0 -03499.4 -07.6568 26264.1
 09 10 2013  21 14  -21.0191 26031.6 -03500.2 -07.6579 26265.8
 09 10 2013  21 15  -21.0188 26032.8 -03500.6 -07.6586 26267.1
 09 10 2013  21 16  -21.0188 26033.6 -03500.9 -07.6589 26267.9
 09 10 2013  21 17  -21.0190 26034.2 -03501.0 -07.6590 26268.6
 09 10 2013  21 18  -21.0193 26034.4 -03500.9 -07.6587 26268.7
 09 10 2013  21 19  -21.0195 26034.9 -03500.8 -07.6584 26269.2
 09 10 2013  21 20  -21.0195 26035.7 -03501.1 -07.6587 26270.0
 09 10 2013  21 21  -21.0199 26035.3 -03500.7 -07.6581 26269.6
 09 10 2013  21 22  -21.0209 26034.2 -03500.1 -07.6571 26268.4
 09 10 2013  21 23  -21.0228 26029.5 -03497.7 -07.6533 26263.5
 09 10 2013  21 24  -21.0246 26025.4 -03495.3 -07.6493 26259.0
 09 10 2013  21 25  -21.0248 26027.0 -03495.6 -07.6494 26260.7
 09 10 2013  21 26  -21.0220 26030.6 -03497.3 -07.6521 26264.5
 09 10 2013  21 27  -21.0201 26032.3 -03498.5 -07.6541 26266.4
 09 10 2013  21 28  -21.0206 26032.2 -03498.8 -07.6548 26266.3
 09 10 2013  21 29  -21.0219 26027.5 -03496.7 -07.6517 26261.3
 09 10 2013  21 30  -21.0246 26023.0 -03494.3 -07.6478 26256.6
 09 10 2013  21 31  -21.0268 26019.2 -03492.3 -07.6446 26252.5
 09 10 2013  21 32  -21.0282 26015.7 -03490.5 -07.6417 26248.8
 09 10 2013  21 33  -21.0289 26014.7 -03490.1 -07.6410 26247.8
 09 10 2013  21 34  -21.0285 26014.1 -03490.0 -07.6410 26247.1
 09 10 2013  21 35  -21.0280 26014.1 -03490.3 -07.6416 26247.2
 09 10 2013  21 36  -21.0279 26013.7 -03490.4 -07.6421 26246.8
 09 10 2013  21 37  -21.0279 26013.7 -03490.8 -07.6428 26246.9
 09 10 2013  21 38  -21.0276 26013.3 -03490.9 -07.6432 26246.5
 09 10 2013  21 39  -21.0272 26012.2 -03490.6 -07.6429 26245.3
 09 10 2013  21 40  -21.0273 26010.9 -03490.2 -07.6423 26244.0
 09 10 2013  21 41  -21.0274 26010.3 -03490.1 -07.6423 26243.4
 09 10 2013  21 42  -21.0269 26009.7 -03490.0 -07.6423 26242.8
 09 10 2013  21 43  -21.0266 26009.5 -03490.1 -07.6426 26242.6
 09 10 2013  21 44  -21.0263 26009.5 -03490.3 -07.6431 26242.6
 09 10 2013  21 45  -21.0260 26009.9 -03490.8 -07.6440 26243.1
 09 10 2013  21 46  -21.0259 26010.4 -03491.3 -07.6449 26243.6
 09 10 2013  21 47  -21.0259 26010.8 -03491.7 -07.6457 26244.1
 09 10 2013  21 48  -21.0260 26010.8 -03491.9 -07.6462 26244.2
 09 10 2013  21 49  -21.0262 26010.9 -03492.1 -07.6466 26244.3
 09 10 2013  21 50  -21.0264 26011.1 -03492.3 -07.6470 26244.5
 09 10 2013  21 51  -21.0263 26011.9 -03492.7 -07.6476 26245.4
 09 10 2013  21 52  -21.0259 26013.0 -03493.4 -07.6486 26246.6
 09 10 2013  21 53  -21.0254 26014.2 -03494.0 -07.6497 26247.8
 09 10 2013  21 54  -21.0253 26014.4 -03494.2 -07.6501 26248.0
 09 10 2013  21 55  -21.0255 26014.6 -03494.3 -07.6502 26248.2
 09 10 2013  21 56  -21.0254 26014.8 -03494.4 -07.6503 26248.4
 09 10 2013  21 57  -21.0252 26014.8 -03494.3 -07.6502 26248.4
 09 10 2013  21 58  -21.0252 26014.2 -03494.0 -07.6498 26247.8
 09 10 2013  21 59  -21.0252 26014.1 -03493.9 -07.6495 26247.7
 09 10 2013  22 00  -21.0252 26014.2 -03494.0 -07.6496 26247.8
 09 10 2013  22 01  -21.0251 26014.3 -03494.0 -07.6497 26247.9
 09 10 2013  22 02  -21.0251 26014.4 -03494.1 -07.6498 26248.0
 09 10 2013  22 03  -21.0251 26014.6 -03494.2 -07.6500 26248.2
 09 10 2013  22 04  -21.0248 26014.6 -03494.2 -07.6501 26248.2
 09 10 2013  22 05  -21.0244 26014.4 -03494.1 -07.6499 26248.0
 09 10 2013  22 06  -21.0241 26014.4 -03494.1 -07.6498 26248.0
 09 10 2013  22 07  -21.0237 26014.6 -03494.2 -07.6499 26248.2
 09 10 2013  22 08  -21.0231 26014.6 -03494.2 -07.6499 26248.2
 09 10 2013  22 09  -21.0226 26014.9 -03494.3 -07.6501 26248.5
 09 10 2013  22 10  -21.0223 26014.9 -03494.3 -07.6502 26248.5
 09 10 2013  22 11  -21.0219 26014.9 -03494.3 -07.6502 26248.5
 09 10 2013  22 12  -21.0215 26014.8 -03494.3 -07.6502 26248.5
 09 10 2013  22 13  -21.0212 26014.6 -03494.2 -07.6500 26248.2
 09 10 2013  22 14  -21.0212 26014.5 -03494.2 -07.6500 26248.1
 09 10 2013  22 15  -21.0210 26014.7 -03494.2 -07.6500 26248.3
 09 10 2013  22 16  -21.0206 26015.6 -03494.6 -07.6507 26249.2
 09 10 2013  22 17  -21.0200 26016.2 -03495.0 -07.6513 26250.0
 09 10 2013  22 18  -21.0196 26016.5 -03495.2 -07.6517 26250.2
 09 10 2013  22 19  -21.0195 26016.9 -03495.4 -07.6520 26250.7
 09 10 2013  22 20  -21.0194 26016.8 -03495.4 -07.6519 26250.6
 09 10 2013  22 21  -21.0194 26016.7 -03495.3 -07.6518 26250.4
 09 10 2013  22 22  -21.0195 26016.6 -03495.2 -07.6515 26250.3
 09 10 2013  22 23  -21.0196 26016.2 -03494.9 -07.6511 26249.9
 09 10 2013  22 24  -21.0197 26015.9 -03494.7 -07.6508 26249.5
 09 10 2013  22 25  -21.0200 26015.6 -03494.6 -07.6505 26249.2
 09 10 2013  22 26  -21.0204 26015.4 -03494.5 -07.6503 26249.0
 09 10 2013  22 27  -21.0205 26015.4 -03494.5 -07.6503 26249.1
 09 10 2013  22 28  -21.0206 26015.6 -03494.5 -07.6504 26249.2
 09 10 2013  22 29  -21.0206 26015.8 -03494.6 -07.6505 26249.4
 09 10 2013  22 30  -21.0205 26016.2 -03494.8 -07.6508 26249.9
 09 10 2013  22 31  -21.0208 26016.3 -03494.9 -07.6511 26250.0
 09 10 2013  22 32  -21.0209 26016.4 -03494.9 -07.6510 26250.1
 09 10 2013  22 33  -21.0214 26016.0 -03494.7 -07.6507 26249.7
 09 10 2013  22 34  -21.0216 26015.7 -03494.5 -07.6503 26249.3
 09 10 2013  22 35  -21.0220 26015.4 -03494.4 -07.6501 26249.0
 09 10 2013  22 36  -21.0223 26014.9 -03494.1 -07.6497 26248.5
 09 10 2013  22 37  -21.0226 26014.4 -03493.8 -07.6493 26247.9
 09 10 2013  22 38  -21.0226 26014.1 -03493.7 -07.6490 26247.7
 09 10 2013  22 39  -21.0225 26014.2 -03493.7 -07.6491 26247.8
 09 10 2013  22 40  -21.0227 26013.7 -03493.5 -07.6488 26247.2
 09 10 2013  22 41  -21.0230 26012.9 -03493.2 -07.6484 26246.4
 09 10 2013  22 42  -21.0235 26012.0 -03492.9 -07.6478 26245.5
 09 10 2013  22 43  -21.0237 26011.5 -03492.6 -07.6473 26244.9
 09 10 2013  22 44  -21.0236 26011.6 -03492.6 -07.6474 26245.0
 09 10 2013  22 45  -21.0236 26011.3 -03492.6 -07.6474 26244.7
 09 10 2013  22 46  -21.0236 26010.8 -03492.4 -07.6472 26244.2
 09 10 2013  22 47  -21.0233 26010.8 -03492.4 -07.6472 26244.2
 09 10 2013  22 48  -21.0228 26011.4 -03492.8 -07.6478 26244.9
 09 10 2013  22 49  -21.0223 26012.7 -03493.4 -07.6488 26246.2
 09 10 2013  22 50  -21.0217 26014.2 -03494.3 -07.6503 26247.8
 09 10 2013  22 51  -21.0208 26015.8 -03495.2 -07.6517 26249.5
 09 10 2013  22 52  -21.0201 26016.5 -03495.6 -07.6525 26250.3
 09 10 2013  22 53  -21.0195 26016.2 -03495.4 -07.6521 26250.0
 09 10 2013  22 54  -21.0190 26015.8 -03495.1 -07.6516 26249.5
 09 10 2013  22 55  -21.0190 26015.3 -03494.8 -07.6511 26249.0
 09 10 2013  22 56  -21.0190 26015.0 -03494.6 -07.6507 26248.6
 09 10 2013  22 57  -21.0188 26014.7 -03494.4 -07.6504 26248.3
 09 10 2013  22 58  -21.0183 26015.2 -03494.6 -07.6506 26248.8
 09 10 2013  22 59  -21.0185 26015.4 -03494.8 -07.6510 26249.1
 09 10 2013  23 00  -21.0189 26015.2 -03494.7 -07.6509 26248.8
 09 10 2013  23 01  -21.0190 26015.2 -03494.7 -07.6509 26248.9
 09 10 2013  23 02  -21.0190 26015.3 -03494.7 -07.6509 26249.0
 09 10 2013  23 03  -21.0188 26015.8 -03494.9 -07.6512 26249.5
 09 10 2013  23 04  -21.0186 26016.3 -03495.2 -07.6516 26250.0
 09 10 2013  23 05  -21.0184 26016.9 -03495.4 -07.6520 26250.6
 09 10 2013  23 06  -21.0184 26016.7 -03495.3 -07.6518 26250.4
 09 10 2013  23 07  -21.0191 26015.0 -03494.6 -07.6507 26248.7
 09 10 2013  23 08  -21.0197 26012.6 -03493.3 -07.6487 26246.1
 09 10 2013  23 09  -21.0198 26011.3 -03492.5 -07.6474 26244.7
 09 10 2013  23 10  -21.0201 26011.1 -03492.4 -07.6471 26244.5
 09 10 2013  23 11  -21.0210 26011.2 -03492.6 -07.6475 26244.6
 09 10 2013  23 12  -21.0215 26011.3 -03492.8 -07.6478 26244.8
 09 10 2013  23 13  -21.0218 26011.6 -03492.9 -07.6481 26245.1
 09 10 2013  23 14  -21.0216 26012.1 -03493.2 -07.6485 26245.6
 09 10 2013  23 15  -21.0217 26012.6 -03493.5 -07.6490 26246.1
 09 10 2013  23 16  -21.0218 26012.4 -03493.5 -07.6490 26246.0
 09 10 2013  23 17  -21.0220 26011.9 -03493.2 -07.6487 26245.4
 09 10 2013  23 18  -21.0220 26011.7 -03493.1 -07.6484 26245.2
 09 10 2013  23 19  -21.0223 26011.4 -03493.0 -07.6482 26244.9
 09 10 2013  23 20  -21.0224 26010.9 -03492.7 -07.6477 26244.4
 09 10 2013  23 21  -21.0224 26010.3 -03492.4 -07.6472 26243.7
 09 10 2013  23 22  -21.0227 26009.6 -03492.0 -07.6468 26243.0
 09 10 2013  23 23  -21.0229 26009.3 -03491.9 -07.6465 26242.6
 09 10 2013  23 24  -21.0230 26009.0 -03491.8 -07.6464 26242.3
 09 10 2013  23 25  -21.0228 26009.1 -03491.9 -07.6465 26242.4
 09 10 2013  23 26  -21.0227 26009.4 -03492.1 -07.6469 26242.8
 09 10 2013  23 27  -21.0229 26010.1 -03492.5 -07.6476 26243.5
 09 10 2013  23 28  -21.0236 26010.9 -03493.0 -07.6484 26244.3
 09 10 2013  23 29  -21.0242 26011.2 -03493.2 -07.6488 26244.7
 09 10 2013  23 30  -21.0245 26011.6 -03493.3 -07.6490 26245.2
 09 10 2013  23 31  -21.0246 26011.8 -03493.4 -07.6491 26245.3
 09 10 2013  23 32  -21.0244 26011.7 -03493.3 -07.6488 26245.3
 09 10 2013  23 33  -21.0242 26011.6 -03493.1 -07.6486 26245.1
 09 10 2013  23 34  -21.0241 26010.6 -03492.7 -07.6479 26244.0
 09 10 2013  23 35  -21.0238 26008.8 -03491.8 -07.6464 26242.2
 09 10 2013  23 36  -21.0234 26007.1 -03490.9 -07.6449 26240.4
 09 10 2013  23 37  -21.0229 26006.2 -03490.4 -07.6442 26239.4
 09 10 2013  23 38  -21.0225 26006.6 -03490.6 -07.6445 26239.8
 09 10 2013  23 39  -21.0224 26008.4 -03491.7 -07.6464 26241.7
 09 10 2013  23 40  -21.0230 26009.4 -03492.5 -07.6478 26242.8
 09 10 2013  23 41  -21.0237 26009.7 -03492.8 -07.6484 26243.2
 09 10 2013  23 42  -21.0244 26009.2 -03492.6 -07.6482 26242.7
 09 10 2013  23 43  -21.0247 26008.8 -03492.4 -07.6477 26242.2
 09 10 2013  23 44  -21.0249 26008.0 -03491.9 -07.6470 26241.4
 09 10 2013  23 45  -21.0248 26007.4 -03491.6 -07.6465 26240.8
 09 10 2013  23 46  -21.0248 26006.8 -03491.4 -07.6461 26240.1
 09 10 2013  23 47  -21.0245 26006.3 -03491.1 -07.6457 26239.6
 09 10 2013  23 48  -21.0246 26005.6 -03490.8 -07.6453 26238.8
 09 10 2013  23 49  -21.0245 26005.0 -03490.6 -07.6450 26238.2
 09 10 2013  23 50  -21.0246 26004.4 -03490.5 -07.6448 26237.6
 09 10 2013  23 51  -21.0244 26004.1 -03490.4 -07.6448 26237.3
 09 10 2013  23 52  -21.0246 26003.9 -03490.4 -07.6449 26237.1
 09 10 2013  23 53  -21.0251 26003.5 -03490.4 -07.6450 26236.7
 09 10 2013  23 54  -21.0254 26003.0 -03490.3 -07.6449 26236.2
 09 10 2013  23 55  -21.0260 26002.5 -03490.2 -07.6447 26235.7
 09 10 2013  23 56  -21.0266 26002.0 -03490.0 -07.6445 26235.1
 09 10 2013  23 57  -21.0270 26001.6 -03490.0 -07.6446 26234.8
