SAO LUIS EMBRACE-03 <222> 1 Min. Reported data

 DD MM YYYY  HH MM   D(Deg)  H(nT)   Z(nT)   I(Deg)   F(nT)

 10 08 2013  00 00  -21.0238 26034.4 -03471.8 -07.5958 26264.9
 10 08 2013  00 01  -21.0238 26034.4 -03471.8 -07.5959 26264.9
 10 08 2013  00 02  -21.0239 26034.4 -03471.8 -07.5958 26264.8
 10 08 2013  00 03  -21.0238 26034.4 -03471.8 -07.5959 26264.9
 10 08 2013  00 04  -21.0237 26034.4 -03471.8 -07.5959 26264.8
 10 08 2013  00 05  -21.0237 26034.4 -03471.8 -07.5958 26264.8
 10 08 2013  00 06  -21.0237 26034.4 -03471.8 -07.5959 26264.8
 10 08 2013  00 07  -21.0237 26034.4 -03471.8 -07.5959 26264.9
 10 08 2013  00 08  -21.0238 26034.4 -03471.9 -07.5959 26264.8
 10 08 2013  00 09  -21.0239 26034.4 -03471.9 -07.5959 26264.9
 10 08 2013  00 10  -21.0239 26034.4 -03471.9 -07.5959 26264.8
 10 08 2013  00 11  -21.0240 26034.4 -03471.9 -07.5960 26264.9
 10 08 2013  00 12  -21.0240 26034.4 -03471.9 -07.5960 26264.9
 10 08 2013  00 13  -21.0240 26034.5 -03471.9 -07.5959 26264.9
 10 08 2013  00 14  -21.0241 26034.5 -03471.9 -07.5960 26264.9
 10 08 2013  00 15  -21.0241 26034.5 -03471.9 -07.5960 26265.0
 10 08 2013  00 16  -21.0239 26034.5 -03471.9 -07.5960 26265.0
 10 08 2013  00 17  -21.0238 26034.6 -03471.9 -07.5960 26265.0
 10 08 2013  00 18  -21.0237 26034.6 -03471.9 -07.5960 26265.0
 10 08 2013  00 19  -21.0239 26034.4 -03471.9 -07.5960 26264.9
 10 08 2013  00 20  -21.0241 26034.5 -03471.9 -07.5960 26264.9
 10 08 2013  00 21  -21.0242 26034.6 -03471.9 -07.5960 26265.0
 10 08 2013  00 22  -21.0241 26034.7 -03472.0 -07.5961 26265.2
 10 08 2013  00 23  -21.0241 26034.9 -03472.0 -07.5962 26265.4
 10 08 2013  00 24  -21.0239 26035.2 -03472.2 -07.5964 26265.7
 10 08 2013  00 25  -21.0239 26035.4 -03472.3 -07.5967 26265.9
 10 08 2013  00 26  -21.0240 26035.4 -03472.3 -07.5967 26265.9
 10 08 2013  00 27  -21.0241 26035.3 -03472.3 -07.5965 26265.8
 10 08 2013  00 28  -21.0244 26035.2 -03472.2 -07.5965 26265.7
 10 08 2013  00 29  -21.0245 26035.2 -03472.2 -07.5963 26265.7
 10 08 2013  00 30  -21.0244 26035.2 -03472.2 -07.5964 26265.7
 10 08 2013  00 31  -21.0244 26035.2 -03472.1 -07.5962 26265.7
 10 08 2013  00 32  -21.0242 26035.2 -03472.1 -07.5962 26265.7
 10 08 2013  00 33  -21.0242 26035.2 -03472.1 -07.5962 26265.7
 10 08 2013  00 34  -21.0241 26035.2 -03472.1 -07.5962 26265.7
 10 08 2013  00 35  -21.0240 26035.2 -03472.1 -07.5962 26265.7
 10 08 2013  00 36  -21.0239 26035.2 -03472.1 -07.5962 26265.7
 10 08 2013  00 37  -21.0237 26035.2 -03472.1 -07.5962 26265.7
 10 08 2013  00 38  -21.0235 26035.3 -03472.1 -07.5962 26265.8
 10 08 2013  00 39  -21.0232 26035.2 -03472.1 -07.5962 26265.7
 10 08 2013  00 40  -21.0229 26035.3 -03472.1 -07.5963 26265.8
 10 08 2013  00 41  -21.0228 26035.4 -03472.2 -07.5963 26265.9
 10 08 2013  00 42  -21.0225 26035.6 -03472.3 -07.5964 26266.1
 10 08 2013  00 43  -21.0223 26035.8 -03472.4 -07.5967 26266.4
 10 08 2013  00 44  -21.0222 26036.0 -03472.5 -07.5968 26266.5
 10 08 2013  00 45  -21.0221 26035.9 -03472.4 -07.5968 26266.4
 10 08 2013  00 46  -21.0221 26035.9 -03472.4 -07.5967 26266.4
 10 08 2013  00 47  -21.0222 26035.9 -03472.5 -07.5968 26266.5
 10 08 2013  00 48  -21.0225 26035.8 -03472.4 -07.5968 26266.4
 10 08 2013  00 49  -21.0228 26035.7 -03472.4 -07.5966 26266.2
 10 08 2013  00 50  -21.0229 26035.6 -03472.3 -07.5965 26266.2
 10 08 2013  00 51  -21.0230 26035.5 -03472.2 -07.5963 26266.0
 10 08 2013  00 52  -21.0228 26035.5 -03472.1 -07.5962 26266.0
 10 08 2013  00 53  -21.0228 26035.5 -03472.1 -07.5962 26266.0
 10 08 2013  00 54  -21.0226 26035.6 -03472.2 -07.5963 26266.1
 10 08 2013  00 55  -21.0225 26035.6 -03472.2 -07.5963 26266.1
 10 08 2013  00 56  -21.0224 26035.7 -03472.2 -07.5963 26266.2
 10 08 2013  00 57  -21.0224 26035.6 -03472.2 -07.5964 26266.2
 10 08 2013  00 58  -21.0228 26035.3 -03472.1 -07.5961 26265.8
 10 08 2013  00 59  -21.0230 26035.2 -03472.0 -07.5960 26265.7
 10 08 2013  01 00  -21.0233 26035.2 -03472.0 -07.5960 26265.6
 10 08 2013  01 01  -21.0236 26035.2 -03472.0 -07.5960 26265.7
 10 08 2013  01 02  -21.0237 26035.3 -03472.1 -07.5961 26265.8
 10 08 2013  01 03  -21.0238 26035.2 -03472.0 -07.5961 26265.7
 10 08 2013  01 04  -21.0240 26035.1 -03471.9 -07.5959 26265.6
 10 08 2013  01 05  -21.0241 26035.1 -03471.9 -07.5959 26265.5
 10 08 2013  01 06  -21.0244 26034.9 -03471.8 -07.5958 26265.4
 10 08 2013  01 07  -21.0244 26034.8 -03471.8 -07.5956 26265.3
 10 08 2013  01 08  -21.0243 26034.9 -03471.8 -07.5956 26265.4
 10 08 2013  01 09  -21.0244 26034.9 -03471.8 -07.5957 26265.4
 10 08 2013  01 10  -21.0241 26035.3 -03472.0 -07.5959 26265.7
 10 08 2013  01 11  -21.0239 26035.4 -03472.1 -07.5961 26265.9
 10 08 2013  01 12  -21.0240 26035.3 -03472.0 -07.5960 26265.8
 10 08 2013  01 13  -21.0241 26035.3 -03472.0 -07.5959 26265.8
 10 08 2013  01 14  -21.0242 26035.1 -03471.9 -07.5958 26265.6
 10 08 2013  01 15  -21.0243 26034.7 -03471.7 -07.5955 26265.2
 10 08 2013  01 16  -21.0244 26034.5 -03471.6 -07.5953 26265.0
 10 08 2013  01 17  -21.0245 26034.2 -03471.4 -07.5950 26264.6
 10 08 2013  01 18  -21.0249 26033.7 -03471.2 -07.5946 26264.1
 10 08 2013  01 19  -21.0251 26033.2 -03471.0 -07.5943 26263.6
 10 08 2013  01 20  -21.0252 26032.9 -03470.8 -07.5941 26263.2
 10 08 2013  01 21  -21.0250 26033.0 -03470.9 -07.5942 26263.4
 10 08 2013  01 22  -21.0249 26033.1 -03471.0 -07.5944 26263.5
 10 08 2013  01 23  -21.0247 26033.2 -03471.1 -07.5945 26263.6
 10 08 2013  01 24  -21.0242 26033.3 -03471.1 -07.5947 26263.7
 10 08 2013  01 25  -21.0239 26033.3 -03471.2 -07.5948 26263.7
 10 08 2013  01 26  -21.0234 26033.4 -03471.3 -07.5949 26263.8
 10 08 2013  01 27  -21.0231 26033.5 -03471.3 -07.5950 26263.9
 10 08 2013  01 28  -21.0230 26033.5 -03471.4 -07.5951 26263.9
 10 08 2013  01 29  -21.0230 26033.3 -03471.3 -07.5951 26263.8
 10 08 2013  01 30  -21.0231 26033.2 -03471.2 -07.5950 26263.6
 10 08 2013  01 31  -21.0229 26033.2 -03471.3 -07.5950 26263.6
 10 08 2013  01 32  -21.0227 26033.2 -03471.3 -07.5951 26263.6
 10 08 2013  01 33  -21.0224 26033.3 -03471.4 -07.5952 26263.7
 10 08 2013  01 34  -21.0221 26033.3 -03471.4 -07.5953 26263.8
 10 08 2013  01 35  -21.0219 26033.2 -03471.4 -07.5952 26263.6
 10 08 2013  01 36  -21.0216 26033.2 -03471.4 -07.5952 26263.6
 10 08 2013  01 37  -21.0213 26033.4 -03471.5 -07.5954 26263.8
 10 08 2013  01 38  -21.0210 26033.5 -03471.6 -07.5955 26264.0
 10 08 2013  01 39  -21.0208 26033.7 -03471.7 -07.5958 26264.2
 10 08 2013  01 40  -21.0208 26033.7 -03471.7 -07.5959 26264.1
 10 08 2013  01 41  -21.0207 26033.7 -03471.7 -07.5959 26264.1
 10 08 2013  01 42  -21.0207 26033.8 -03471.8 -07.5960 26264.2
 10 08 2013  01 43  -21.0211 26033.5 -03471.7 -07.5960 26264.0
 10 08 2013  01 44  -21.0215 26033.2 -03471.6 -07.5957 26263.7
 10 08 2013  01 45  -21.0218 26032.9 -03471.5 -07.5956 26263.4
 10 08 2013  01 46  -21.0222 26032.7 -03471.3 -07.5953 26263.1
 10 08 2013  01 47  -21.0221 26032.6 -03471.3 -07.5953 26263.0
 10 08 2013  01 48  -21.0220 26032.7 -03471.3 -07.5953 26263.1
 10 08 2013  01 49  -21.0222 26032.9 -03471.4 -07.5955 26263.3
 10 08 2013  01 50  -21.0222 26033.0 -03471.5 -07.5956 26263.4
 10 08 2013  01 51  -21.0223 26032.9 -03471.5 -07.5956 26263.3
 10 08 2013  01 52  -21.0225 26032.6 -03471.4 -07.5955 26263.1
 10 08 2013  01 53  -21.0228 26032.4 -03471.3 -07.5954 26262.8
 10 08 2013  01 54  -21.0231 26032.0 -03471.2 -07.5951 26262.4
 10 08 2013  01 55  -21.0234 26031.8 -03471.1 -07.5951 26262.2
 10 08 2013  01 56  -21.0236 26031.6 -03471.1 -07.5951 26262.0
 10 08 2013  01 57  -21.0236 26031.3 -03471.0 -07.5949 26261.7
 10 08 2013  01 58  -21.0234 26031.4 -03471.0 -07.5949 26261.8
 10 08 2013  01 59  -21.0234 26031.4 -03471.1 -07.5951 26261.8
 10 08 2013  02 00  -21.0234 26031.6 -03471.2 -07.5954 26262.0
 10 08 2013  02 01  -21.0232 26031.9 -03471.4 -07.5957 26262.3
 10 08 2013  02 02  -21.0233 26032.1 -03471.5 -07.5959 26262.5
 10 08 2013  02 03  -21.0235 26032.1 -03471.6 -07.5961 26262.6
 10 08 2013  02 04  -21.0238 26031.8 -03471.5 -07.5960 26262.3
 10 08 2013  02 05  -21.0240 26031.6 -03471.4 -07.5958 26262.0
 10 08 2013  02 06  -21.0241 26031.4 -03471.3 -07.5956 26261.8
 10 08 2013  02 07  -21.0245 26031.0 -03471.1 -07.5953 26261.4
 10 08 2013  02 08  -21.0247 26030.8 -03471.0 -07.5952 26261.2
 10 08 2013  02 09  -21.0249 26030.5 -03471.0 -07.5951 26260.9
 10 08 2013  02 10  -21.0247 26030.4 -03470.9 -07.5950 26260.8
 10 08 2013  02 11  -21.0243 26030.4 -03470.9 -07.5951 26260.8
 10 08 2013  02 12  -21.0241 26030.5 -03471.0 -07.5952 26260.9
 10 08 2013  02 13  -21.0238 26030.8 -03471.2 -07.5956 26261.2
 10 08 2013  02 14  -21.0238 26031.0 -03471.4 -07.5959 26261.4
 10 08 2013  02 15  -21.0241 26031.1 -03471.5 -07.5961 26261.6
 10 08 2013  02 16  -21.0243 26031.2 -03471.6 -07.5963 26261.6
 10 08 2013  02 17  -21.0242 26031.3 -03471.6 -07.5963 26261.7
 10 08 2013  02 18  -21.0240 26031.3 -03471.7 -07.5964 26261.8
 10 08 2013  02 19  -21.0239 26031.3 -03471.7 -07.5964 26261.8
 10 08 2013  02 20  -21.0239 26031.3 -03471.7 -07.5965 26261.8
 10 08 2013  02 21  -21.0237 26031.5 -03471.8 -07.5967 26262.0
 10 08 2013  02 22  -21.0236 26031.7 -03471.9 -07.5969 26262.2
 10 08 2013  02 23  -21.0238 26031.8 -03472.0 -07.5970 26262.3
 10 08 2013  02 24  -21.0238 26031.8 -03472.0 -07.5971 26262.3
 10 08 2013  02 25  -21.0238 26031.7 -03472.0 -07.5971 26262.2
 10 08 2013  02 26  -21.0237 26031.7 -03472.0 -07.5970 26262.2
 10 08 2013  02 27  -21.0237 26031.5 -03472.0 -07.5970 26262.1
 10 08 2013  02 28  -21.0239 26031.4 -03471.9 -07.5969 26261.9
 10 08 2013  02 29  -21.0239 26031.1 -03471.8 -07.5968 26261.6
 10 08 2013  02 30  -21.0236 26031.0 -03471.8 -07.5967 26261.5
 10 08 2013  02 31  -21.0235 26031.0 -03471.8 -07.5968 26261.5
 10 08 2013  02 32  -21.0233 26031.0 -03471.8 -07.5968 26261.5
 10 08 2013  02 33  -21.0233 26031.0 -03471.9 -07.5969 26261.5
 10 08 2013  02 34  -21.0232 26031.0 -03471.9 -07.5971 26261.5
 10 08 2013  02 35  -21.0234 26030.7 -03471.9 -07.5970 26261.2
 10 08 2013  02 36  -21.0236 26030.4 -03471.7 -07.5968 26260.8
 10 08 2013  02 37  -21.0235 26029.9 -03471.5 -07.5965 26260.4
 10 08 2013  02 38  -21.0235 26029.6 -03471.4 -07.5964 26260.1
 10 08 2013  02 39  -21.0234 26029.4 -03471.3 -07.5963 26259.8
 10 08 2013  02 40  -21.0233 26029.2 -03471.3 -07.5962 26259.6
 10 08 2013  02 41  -21.0231 26029.2 -03471.3 -07.5963 26259.6
 10 08 2013  02 42  -21.0231 26029.0 -03471.3 -07.5964 26259.5
 10 08 2013  02 43  -21.0228 26029.2 -03471.4 -07.5965 26259.7
 10 08 2013  02 44  -21.0223 26029.4 -03471.6 -07.5969 26259.9
 10 08 2013  02 45  -21.0220 26029.6 -03471.8 -07.5971 26260.1
 10 08 2013  02 46  -21.0216 26030.0 -03472.0 -07.5975 26260.5
 10 08 2013  02 47  -21.0214 26030.2 -03472.2 -07.5979 26260.8
 10 08 2013  02 48  -21.0215 26030.4 -03472.4 -07.5983 26261.0
 10 08 2013  02 49  -21.0217 26030.9 -03472.7 -07.5987 26261.5
 10 08 2013  02 50  -21.0220 26030.9 -03472.7 -07.5988 26261.5
 10 08 2013  02 51  -21.0223 26030.7 -03472.7 -07.5987 26261.3
 10 08 2013  02 52  -21.0225 26030.7 -03472.6 -07.5986 26261.3
 10 08 2013  02 53  -21.0226 26030.7 -03472.6 -07.5986 26261.3
 10 08 2013  02 54  -21.0227 26030.7 -03472.6 -07.5986 26261.3
 10 08 2013  02 55  -21.0226 26030.9 -03472.7 -07.5987 26261.5
 10 08 2013  02 56  -21.0227 26030.9 -03472.7 -07.5988 26261.5
 10 08 2013  02 57  -21.0228 26031.0 -03472.8 -07.5989 26261.6
 10 08 2013  02 58  -21.0228 26031.0 -03472.8 -07.5989 26261.7
 10 08 2013  02 59  -21.0226 26031.2 -03472.9 -07.5991 26261.9
 10 08 2013  03 00  -21.0223 26031.2 -03472.9 -07.5991 26261.9
 10 08 2013  03 01  -21.0223 26031.1 -03472.8 -07.5990 26261.7
 10 08 2013  03 02  -21.0223 26031.0 -03472.8 -07.5989 26261.6
 10 08 2013  03 03  -21.0224 26030.8 -03472.7 -07.5988 26261.4
 10 08 2013  03 04  -21.0223 26030.7 -03472.6 -07.5987 26261.3
 10 08 2013  03 05  -21.0223 26030.5 -03472.6 -07.5986 26261.1
 10 08 2013  03 06  -21.0222 26030.4 -03472.5 -07.5985 26261.0
 10 08 2013  03 07  -21.0222 26030.2 -03472.5 -07.5984 26260.8
 10 08 2013  03 08  -21.0221 26030.1 -03472.4 -07.5984 26260.7
 10 08 2013  03 09  -21.0220 26029.9 -03472.3 -07.5983 26260.5
 10 08 2013  03 10  -21.0220 26029.8 -03472.3 -07.5982 26260.4
 10 08 2013  03 11  -21.0219 26029.8 -03472.3 -07.5983 26260.4
 10 08 2013  03 12  -21.0218 26029.8 -03472.3 -07.5983 26260.4
 10 08 2013  03 13  -21.0218 26029.7 -03472.3 -07.5983 26260.3
 10 08 2013  03 14  -21.0218 26029.8 -03472.4 -07.5984 26260.4
 10 08 2013  03 15  -21.0218 26029.7 -03472.4 -07.5985 26260.3
 10 08 2013  03 16  -21.0217 26029.7 -03472.4 -07.5985 26260.3
 10 08 2013  03 17  -21.0218 26029.6 -03472.4 -07.5985 26260.2
 10 08 2013  03 18  -21.0221 26029.5 -03472.4 -07.5985 26260.1
 10 08 2013  03 19  -21.0221 26029.5 -03472.4 -07.5985 26260.1
 10 08 2013  03 20  -21.0220 26029.6 -03472.4 -07.5985 26260.2
 10 08 2013  03 21  -21.0220 26029.6 -03472.4 -07.5986 26260.2
 10 08 2013  03 22  -21.0222 26029.6 -03472.5 -07.5987 26260.2
 10 08 2013  03 23  -21.0225 26029.7 -03472.6 -07.5988 26260.4
 10 08 2013  03 24  -21.0228 26029.8 -03472.6 -07.5990 26260.5
 10 08 2013  03 25  -21.0228 26029.9 -03472.6 -07.5989 26260.5
 10 08 2013  03 26  -21.0228 26030.1 -03472.7 -07.5990 26260.7
 10 08 2013  03 27  -21.0227 26030.3 -03472.8 -07.5991 26261.0
 10 08 2013  03 28  -21.0225 26030.6 -03472.9 -07.5993 26261.2
 10 08 2013  03 29  -21.0222 26030.9 -03473.0 -07.5995 26261.5
 10 08 2013  03 30  -21.0219 26031.2 -03473.2 -07.5997 26261.8
 10 08 2013  03 31  -21.0220 26031.1 -03473.2 -07.5997 26261.8
 10 08 2013  03 32  -21.0218 26031.2 -03473.2 -07.5997 26261.9
 10 08 2013  03 33  -21.0216 26031.3 -03473.2 -07.5996 26262.0
 10 08 2013  03 34  -21.0215 26031.3 -03473.2 -07.5997 26262.0
 10 08 2013  03 35  -21.0212 26031.3 -03473.1 -07.5996 26262.0
 10 08 2013  03 36  -21.0211 26031.2 -03473.1 -07.5995 26261.9
 10 08 2013  03 37  -21.0208 26031.2 -03473.0 -07.5994 26261.8
 10 08 2013  03 38  -21.0207 26031.0 -03472.9 -07.5993 26261.7
 10 08 2013  03 39  -21.0204 26031.1 -03473.0 -07.5993 26261.8
 10 08 2013  03 40  -21.0201 26031.2 -03473.1 -07.5995 26261.9
 10 08 2013  03 41  -21.0201 26031.2 -03473.1 -07.5995 26261.9
 10 08 2013  03 42  -21.0201 26031.2 -03473.1 -07.5996 26261.9
 10 08 2013  03 43  -21.0198 26031.2 -03473.1 -07.5996 26261.9
 10 08 2013  03 44  -21.0196 26031.2 -03473.1 -07.5996 26261.9
 10 08 2013  03 45  -21.0194 26031.3 -03473.2 -07.5997 26262.0
 10 08 2013  03 46  -21.0192 26031.4 -03473.3 -07.5998 26262.1
 10 08 2013  03 47  -21.0193 26031.4 -03473.3 -07.5999 26262.1
 10 08 2013  03 48  -21.0194 26031.4 -03473.3 -07.6000 26262.1
 10 08 2013  03 49  -21.0193 26031.5 -03473.3 -07.5999 26262.2
 10 08 2013  03 50  -21.0191 26031.5 -03473.3 -07.5999 26262.2
 10 08 2013  03 51  -21.0187 26031.4 -03473.3 -07.5999 26262.1
 10 08 2013  03 52  -21.0184 26031.4 -03473.3 -07.5998 26262.1
 10 08 2013  03 53  -21.0181 26031.4 -03473.3 -07.6000 26262.1
 10 08 2013  03 54  -21.0181 26031.5 -03473.4 -07.6001 26262.2
 10 08 2013  03 55  -21.0182 26031.5 -03473.4 -07.6001 26262.2
 10 08 2013  03 56  -21.0185 26031.3 -03473.4 -07.6001 26262.0
 10 08 2013  03 57  -21.0185 26031.3 -03473.3 -07.6000 26262.0
 10 08 2013  03 58  -21.0184 26031.1 -03473.2 -07.5999 26261.8
 10 08 2013  03 59  -21.0184 26030.9 -03473.2 -07.5998 26261.6
 10 08 2013  04 00  -21.0183 26031.0 -03473.2 -07.5998 26261.7
 10 08 2013  04 01  -21.0182 26031.1 -03473.3 -07.6000 26261.8
 10 08 2013  04 02  -21.0181 26031.2 -03473.4 -07.6001 26261.9
 10 08 2013  04 03  -21.0182 26031.2 -03473.4 -07.6001 26261.9
 10 08 2013  04 04  -21.0183 26031.0 -03473.3 -07.6001 26261.8
 10 08 2013  04 05  -21.0186 26030.8 -03473.2 -07.6000 26261.4
 10 08 2013  04 06  -21.0189 26030.5 -03473.1 -07.5997 26261.1
 10 08 2013  04 07  -21.0193 26030.2 -03473.0 -07.5996 26260.9
 10 08 2013  04 08  -21.0196 26030.0 -03472.9 -07.5994 26260.7
 10 08 2013  04 09  -21.0199 26030.0 -03472.9 -07.5995 26260.7
 10 08 2013  04 10  -21.0202 26029.9 -03472.9 -07.5995 26260.6
 10 08 2013  04 11  -21.0206 26030.1 -03473.0 -07.5996 26260.8
 10 08 2013  04 12  -21.0207 26030.3 -03473.1 -07.5999 26261.0
 10 08 2013  04 13  -21.0208 26030.5 -03473.2 -07.6000 26261.2
 10 08 2013  04 14  -21.0211 26030.6 -03473.3 -07.6000 26261.3
 10 08 2013  04 15  -21.0212 26030.6 -03473.3 -07.6001 26261.3
 10 08 2013  04 16  -21.0215 26030.7 -03473.3 -07.6001 26261.4
 10 08 2013  04 17  -21.0216 26030.8 -03473.3 -07.6001 26261.5
 10 08 2013  04 18  -21.0218 26031.0 -03473.4 -07.6002 26261.7
 10 08 2013  04 19  -21.0218 26031.2 -03473.5 -07.6004 26261.9
 10 08 2013  04 20  -21.0219 26031.2 -03473.5 -07.6003 26261.9
 10 08 2013  04 21  -21.0218 26031.3 -03473.5 -07.6003 26262.0
 10 08 2013  04 22  -21.0217 26031.1 -03473.4 -07.6001 26261.8
 10 08 2013  04 23  -21.0217 26031.2 -03473.3 -07.6000 26261.9
 10 08 2013  04 24  -21.0215 26031.0 -03473.2 -07.5999 26261.7
 10 08 2013  04 25  -21.0213 26031.2 -03473.3 -07.5999 26261.9
 10 08 2013  04 26  -21.0210 26031.4 -03473.4 -07.6000 26262.1
 10 08 2013  04 27  -21.0208 26031.6 -03473.5 -07.6002 26262.3
 10 08 2013  04 28  -21.0205 26032.1 -03473.7 -07.6005 26262.8
 10 08 2013  04 29  -21.0204 26032.3 -03473.8 -07.6007 26263.1
 10 08 2013  04 30  -21.0202 26032.6 -03473.9 -07.6009 26263.4
 10 08 2013  04 31  -21.0198 26032.8 -03474.0 -07.6011 26263.6
 10 08 2013  04 32  -21.0195 26033.0 -03474.0 -07.6010 26263.8
 10 08 2013  04 33  -21.0191 26033.1 -03474.1 -07.6011 26263.9
 10 08 2013  04 34  -21.0190 26032.9 -03474.0 -07.6010 26263.7
 10 08 2013  04 35  -21.0191 26032.9 -03474.0 -07.6009 26263.7
 10 08 2013  04 36  -21.0196 26032.6 -03473.8 -07.6007 26263.3
 10 08 2013  04 37  -21.0200 26032.4 -03473.7 -07.6005 26263.1
 10 08 2013  04 38  -21.0201 26032.6 -03473.8 -07.6006 26263.3
 10 08 2013  04 39  -21.0203 26032.5 -03473.7 -07.6006 26263.3
 10 08 2013  04 40  -21.0204 26032.6 -03473.8 -07.6006 26263.4
 10 08 2013  04 41  -21.0206 26032.8 -03473.8 -07.6007 26263.5
 10 08 2013  04 42  -21.0206 26032.8 -03473.9 -07.6007 26263.6
 10 08 2013  04 43  -21.0206 26032.9 -03473.9 -07.6007 26263.6
 10 08 2013  04 44  -21.0204 26033.0 -03473.9 -07.6008 26263.8
 10 08 2013  04 45  -21.0204 26033.1 -03473.9 -07.6008 26263.9
 10 08 2013  04 46  -21.0203 26033.2 -03474.0 -07.6009 26264.0
 10 08 2013  04 47  -21.0202 26033.4 -03474.0 -07.6010 26264.2
 10 08 2013  04 48  -21.0200 26033.5 -03474.1 -07.6010 26264.2
 10 08 2013  04 49  -21.0198 26033.3 -03474.0 -07.6009 26264.1
 10 08 2013  04 50  -21.0197 26033.3 -03473.9 -07.6007 26264.0
 10 08 2013  04 51  -21.0195 26033.2 -03473.9 -07.6006 26263.9
 10 08 2013  04 52  -21.0192 26033.3 -03473.9 -07.6007 26264.0
 10 08 2013  04 53  -21.0188 26033.4 -03474.0 -07.6008 26264.2
 10 08 2013  04 54  -21.0185 26033.5 -03474.0 -07.6008 26264.2
 10 08 2013  04 55  -21.0184 26033.5 -03474.0 -07.6009 26264.2
 10 08 2013  04 56  -21.0181 26033.5 -03474.0 -07.6009 26264.3
 10 08 2013  04 57  -21.0178 26033.5 -03474.0 -07.6009 26264.3
 10 08 2013  04 58  -21.0177 26033.4 -03474.0 -07.6008 26264.2
 10 08 2013  04 59  -21.0175 26033.5 -03474.0 -07.6009 26264.2
 10 08 2013  05 00  -21.0172 26033.6 -03474.1 -07.6009 26264.3
 10 08 2013  05 01  -21.0171 26033.4 -03474.0 -07.6009 26264.2
 10 08 2013  05 02  -21.0169 26033.4 -03474.0 -07.6008 26264.1
 10 08 2013  05 03  -21.0165 26033.2 -03473.9 -07.6007 26264.0
 10 08 2013  05 04  -21.0163 26033.0 -03473.8 -07.6006 26263.7
 10 08 2013  05 05  -21.0160 26032.9 -03473.8 -07.6005 26263.6
 10 08 2013  05 06  -21.0158 26032.7 -03473.7 -07.6005 26263.5
 10 08 2013  05 07  -21.0157 26032.5 -03473.7 -07.6004 26263.3
 10 08 2013  05 08  -21.0158 26032.4 -03473.6 -07.6003 26263.1
 10 08 2013  05 09  -21.0158 26032.2 -03473.6 -07.6004 26263.0
 10 08 2013  05 10  -21.0161 26032.1 -03473.6 -07.6003 26262.8
 10 08 2013  05 11  -21.0163 26032.2 -03473.7 -07.6005 26262.9
 10 08 2013  05 12  -21.0163 26032.1 -03473.7 -07.6005 26262.9
 10 08 2013  05 13  -21.0164 26032.0 -03473.6 -07.6003 26262.7
 10 08 2013  05 14  -21.0163 26031.9 -03473.5 -07.6003 26262.6
 10 08 2013  05 15  -21.0162 26031.9 -03473.6 -07.6003 26262.6
 10 08 2013  05 16  -21.0160 26031.9 -03473.6 -07.6004 26262.6
 10 08 2013  05 17  -21.0159 26031.9 -03473.6 -07.6005 26262.6
 10 08 2013  05 18  -21.0159 26031.8 -03473.6 -07.6005 26262.5
 10 08 2013  05 19  -21.0159 26031.9 -03473.7 -07.6007 26262.7
 10 08 2013  05 20  -21.0160 26032.1 -03473.8 -07.6009 26262.9
 10 08 2013  05 21  -21.0159 26032.2 -03473.9 -07.6010 26263.0
 10 08 2013  05 22  -21.0160 26032.4 -03474.0 -07.6011 26263.2
 10 08 2013  05 23  -21.0161 26032.5 -03474.0 -07.6012 26263.2
 10 08 2013  05 24  -21.0162 26032.4 -03474.0 -07.6012 26263.2
 10 08 2013  05 25  -21.0162 26032.4 -03474.0 -07.6011 26263.2
 10 08 2013  05 26  -21.0164 26032.3 -03474.0 -07.6011 26263.1
 10 08 2013  05 27  -21.0164 26032.2 -03473.9 -07.6009 26263.0
 10 08 2013  05 28  -21.0164 26032.5 -03474.0 -07.6011 26263.2
 10 08 2013  05 29  -21.0162 26032.5 -03474.0 -07.6011 26263.3
 10 08 2013  05 30  -21.0160 26032.7 -03474.1 -07.6013 26263.5
 10 08 2013  05 31  -21.0158 26033.0 -03474.2 -07.6015 26263.8
 10 08 2013  05 32  -21.0158 26033.1 -03474.3 -07.6016 26264.0
 10 08 2013  05 33  -21.0155 26033.3 -03474.4 -07.6017 26264.1
 10 08 2013  05 34  -21.0153 26033.3 -03474.4 -07.6017 26264.1
 10 08 2013  05 35  -21.0152 26033.3 -03474.4 -07.6017 26264.1
 10 08 2013  05 36  -21.0150 26033.5 -03474.4 -07.6018 26264.3
 10 08 2013  05 37  -21.0149 26033.4 -03474.4 -07.6017 26264.2
 10 08 2013  05 38  -21.0149 26033.2 -03474.3 -07.6015 26264.0
 10 08 2013  05 39  -21.0151 26033.0 -03474.2 -07.6014 26263.8
 10 08 2013  05 40  -21.0153 26033.0 -03474.2 -07.6014 26263.8
 10 08 2013  05 41  -21.0154 26033.4 -03474.3 -07.6016 26264.2
 10 08 2013  05 42  -21.0157 26033.3 -03474.4 -07.6017 26264.1
 10 08 2013  05 43  -21.0157 26033.3 -03474.3 -07.6015 26264.1
 10 08 2013  05 44  -21.0154 26034.2 -03474.7 -07.6022 26265.0
 10 08 2013  05 45  -21.0156 26033.8 -03474.5 -07.6019 26264.6
 10 08 2013  05 46  -21.0154 26034.1 -03474.6 -07.6020 26265.0
 10 08 2013  05 47  -21.0154 26034.3 -03474.7 -07.6021 26265.1
 10 08 2013  05 48  -21.0152 26034.5 -03474.7 -07.6021 26265.3
 10 08 2013  05 49  -21.0150 26034.4 -03474.7 -07.6021 26265.3
 10 08 2013  05 50  -21.0145 26035.0 -03474.9 -07.6024 26265.8
 10 08 2013  05 51  -21.0137 26035.7 -03475.3 -07.6029 26266.6
 10 08 2013  05 52  -21.0128 26036.2 -03475.5 -07.6032 26267.1
 10 08 2013  05 53  -21.0120 26036.9 -03475.8 -07.6037 26267.9
 10 08 2013  05 54  -21.0114 26037.1 -03475.9 -07.6039 26268.1
 10 08 2013  05 55  -21.0107 26037.5 -03476.0 -07.6040 26268.5
 10 08 2013  05 56  -21.0102 26037.8 -03476.1 -07.6042 26268.8
 10 08 2013  05 57  -21.0100 26037.7 -03476.1 -07.6041 26268.7
 10 08 2013  05 58  -21.0100 26037.3 -03475.9 -07.6038 26268.3
 10 08 2013  05 59  -21.0100 26037.0 -03475.7 -07.6034 26268.0
 10 08 2013  06 00  -21.0099 26037.2 -03475.7 -07.6035 26268.1
 10 08 2013  06 01  -21.0096 26037.2 -03475.7 -07.6034 26268.2
 10 08 2013  06 02  -21.0094 26037.8 -03476.0 -07.6038 26268.8
 10 08 2013  06 03  -21.0091 26038.4 -03476.2 -07.6043 26269.4
 10 08 2013  06 04  -21.0091 26038.7 -03476.5 -07.6047 26269.8
 10 08 2013  06 05  -21.0092 26038.5 -03476.4 -07.6045 26269.6
 10 08 2013  06 06  -21.0092 26038.6 -03476.3 -07.6044 26269.6
 10 08 2013  06 07  -21.0092 26038.9 -03476.4 -07.6045 26269.9
 10 08 2013  06 08  -21.0095 26039.1 -03476.5 -07.6046 26270.2
 10 08 2013  06 09  -21.0099 26039.0 -03476.4 -07.6045 26270.1
 10 08 2013  06 10  -21.0102 26038.8 -03476.2 -07.6042 26269.8
 10 08 2013  06 11  -21.0106 26038.4 -03476.0 -07.6038 26269.4
 10 08 2013  06 12  -21.0110 26038.2 -03475.8 -07.6034 26269.1
 10 08 2013  06 13  -21.0112 26038.1 -03475.7 -07.6032 26269.0
 10 08 2013  06 14  -21.0116 26038.0 -03475.6 -07.6031 26269.0
 10 08 2013  06 15  -21.0119 26037.9 -03475.6 -07.6030 26268.9
 10 08 2013  06 16  -21.0123 26038.2 -03475.7 -07.6032 26269.1
 10 08 2013  06 17  -21.0125 26038.5 -03475.9 -07.6034 26269.5
 10 08 2013  06 18  -21.0124 26038.8 -03476.0 -07.6036 26269.8
 10 08 2013  06 19  -21.0124 26038.8 -03475.9 -07.6034 26269.8
 10 08 2013  06 20  -21.0123 26038.5 -03475.7 -07.6031 26269.5
 10 08 2013  06 21  -21.0123 26038.4 -03475.6 -07.6028 26269.3
 10 08 2013  06 22  -21.0124 26038.1 -03475.4 -07.6026 26269.0
 10 08 2013  06 23  -21.0123 26037.7 -03475.2 -07.6022 26268.6
 10 08 2013  06 24  -21.0119 26037.5 -03475.1 -07.6020 26268.4
 10 08 2013  06 25  -21.0114 26037.2 -03474.9 -07.6017 26268.0
 10 08 2013  06 26  -21.0107 26036.9 -03474.8 -07.6015 26267.8
 10 08 2013  06 27  -21.0103 26036.7 -03474.7 -07.6014 26267.5
 10 08 2013  06 28  -21.0100 26036.5 -03474.7 -07.6014 26267.3
 10 08 2013  06 29  -21.0097 26036.2 -03474.6 -07.6013 26267.1
 10 08 2013  06 30  -21.0097 26035.9 -03474.5 -07.6012 26266.7
 10 08 2013  06 31  -21.0096 26035.9 -03474.6 -07.6014 26266.7
 10 08 2013  06 32  -21.0094 26035.7 -03474.6 -07.6015 26266.6
 10 08 2013  06 33  -21.0091 26035.7 -03474.7 -07.6016 26266.6
 10 08 2013  06 34  -21.0090 26035.6 -03474.6 -07.6016 26266.4
 10 08 2013  06 35  -21.0089 26035.8 -03474.8 -07.6019 26266.6
 10 08 2013  06 36  -21.0092 26035.6 -03474.8 -07.6020 26266.5
 10 08 2013  06 37  -21.0093 26035.9 -03475.0 -07.6023 26266.8
 10 08 2013  06 38  -21.0093 26035.8 -03475.0 -07.6024 26266.6
 10 08 2013  06 39  -21.0092 26035.5 -03474.9 -07.6022 26266.4
 10 08 2013  06 40  -21.0091 26035.6 -03474.9 -07.6022 26266.4
 10 08 2013  06 41  -21.0088 26036.0 -03475.1 -07.6025 26266.9
 10 08 2013  06 42  -21.0087 26036.4 -03475.4 -07.6030 26267.3
 10 08 2013  06 43  -21.0083 26036.6 -03475.5 -07.6032 26267.6
 10 08 2013  06 44  -21.0084 26036.6 -03475.6 -07.6033 26267.5
 10 08 2013  06 45  -21.0084 26036.4 -03475.5 -07.6032 26267.3
 10 08 2013  06 46  -21.0083 26036.3 -03475.4 -07.6031 26267.3
 10 08 2013  06 47  -21.0085 26036.2 -03475.4 -07.6031 26267.2
 10 08 2013  06 48  -21.0084 26036.2 -03475.4 -07.6031 26267.1
 10 08 2013  06 49  -21.0082 26035.9 -03475.3 -07.6029 26266.8
 10 08 2013  06 50  -21.0081 26036.0 -03475.3 -07.6030 26266.9
 10 08 2013  06 51  -21.0081 26036.0 -03475.4 -07.6031 26266.9
 10 08 2013  06 52  -21.0079 26035.9 -03475.4 -07.6031 26266.8
 10 08 2013  06 53  -21.0076 26035.9 -03475.4 -07.6031 26266.8
 10 08 2013  06 54  -21.0072 26035.6 -03475.2 -07.6029 26266.5
 10 08 2013  06 55  -21.0066 26035.5 -03475.2 -07.6029 26266.4
 10 08 2013  06 56  -21.0061 26035.4 -03475.2 -07.6029 26266.3
 10 08 2013  06 57  -21.0060 26035.3 -03475.2 -07.6029 26266.2
 10 08 2013  06 58  -21.0059 26035.3 -03475.3 -07.6031 26266.2
 10 08 2013  06 59  -21.0059 26035.2 -03475.3 -07.6032 26266.2
 10 08 2013  07 00  -21.0063 26035.0 -03475.3 -07.6032 26266.0
 10 08 2013  07 01  -21.0068 26034.7 -03475.2 -07.6031 26265.6
 10 08 2013  07 02  -21.0074 26034.4 -03475.1 -07.6030 26265.3
 10 08 2013  07 03  -21.0077 26034.4 -03475.1 -07.6029 26265.3
 10 08 2013  07 04  -21.0079 26034.5 -03475.2 -07.6031 26265.5
 10 08 2013  07 05  -21.0081 26034.7 -03475.3 -07.6034 26265.6
 10 08 2013  07 06  -21.0080 26034.8 -03475.5 -07.6036 26265.8
 10 08 2013  07 07  -21.0081 26035.0 -03475.6 -07.6038 26266.0
 10 08 2013  07 08  -21.0082 26035.2 -03475.7 -07.6041 26266.2
 10 08 2013  07 09  -21.0083 26035.3 -03475.8 -07.6042 26266.3
 10 08 2013  07 10  -21.0082 26035.5 -03475.9 -07.6043 26266.5
 10 08 2013  07 11  -21.0084 26035.6 -03476.0 -07.6045 26266.6
 10 08 2013  07 12  -21.0087 26035.6 -03476.0 -07.6045 26266.6
 10 08 2013  07 13  -21.0087 26035.4 -03475.9 -07.6044 26266.4
 10 08 2013  07 14  -21.0084 26035.4 -03475.8 -07.6042 26266.4
 10 08 2013  07 15  -21.0083 26035.3 -03475.8 -07.6041 26266.3
 10 08 2013  07 16  -21.0080 26035.2 -03475.7 -07.6041 26266.2
 10 08 2013  07 17  -21.0077 26035.1 -03475.7 -07.6039 26266.1
 10 08 2013  07 18  -21.0074 26035.1 -03475.7 -07.6040 26266.1
 10 08 2013  07 19  -21.0070 26035.1 -03475.7 -07.6040 26266.1
 10 08 2013  07 20  -21.0066 26035.1 -03475.8 -07.6042 26266.1
 10 08 2013  07 21  -21.0061 26035.1 -03475.8 -07.6042 26266.1
 10 08 2013  07 22  -21.0054 26035.2 -03475.8 -07.6043 26266.2
 10 08 2013  07 23  -21.0048 26035.2 -03475.9 -07.6044 26266.2
 10 08 2013  07 24  -21.0045 26035.2 -03475.9 -07.6045 26266.2
 10 08 2013  07 25  -21.0041 26035.3 -03476.0 -07.6047 26266.3
 10 08 2013  07 26  -21.0037 26035.5 -03476.2 -07.6050 26266.5
 10 08 2013  07 27  -21.0035 26035.5 -03476.3 -07.6051 26266.6
 10 08 2013  07 28  -21.0033 26035.5 -03476.3 -07.6053 26266.6
 10 08 2013  07 29  -21.0033 26035.6 -03476.4 -07.6054 26266.6
 10 08 2013  07 30  -21.0032 26035.4 -03476.4 -07.6054 26266.5
 10 08 2013  07 31  -21.0033 26035.3 -03476.3 -07.6054 26266.4
 10 08 2013  07 32  -21.0033 26035.0 -03476.2 -07.6052 26266.1
 10 08 2013  07 33  -21.0031 26034.8 -03476.1 -07.6050 26265.9
 10 08 2013  07 34  -21.0031 26034.7 -03476.0 -07.6049 26265.7
 10 08 2013  07 35  -21.0030 26034.5 -03476.0 -07.6049 26265.5
 10 08 2013  07 36  -21.0030 26034.3 -03476.0 -07.6048 26265.3
 10 08 2013  07 37  -21.0031 26034.3 -03476.0 -07.6049 26265.4
 10 08 2013  07 38  -21.0032 26034.4 -03476.1 -07.6050 26265.4
 10 08 2013  07 39  -21.0034 26034.3 -03476.1 -07.6051 26265.3
 10 08 2013  07 40  -21.0034 26034.4 -03476.1 -07.6051 26265.5
 10 08 2013  07 41  -21.0033 26034.7 -03476.2 -07.6053 26265.7
 10 08 2013  07 42  -21.0031 26035.1 -03476.5 -07.6057 26266.2
 10 08 2013  07 43  -21.0030 26035.4 -03476.7 -07.6061 26266.5
 10 08 2013  07 44  -21.0029 26035.5 -03476.7 -07.6061 26266.6
 10 08 2013  07 45  -21.0028 26035.6 -03476.8 -07.6062 26266.7
 10 08 2013  07 46  -21.0027 26035.5 -03476.7 -07.6061 26266.6
 10 08 2013  07 47  -21.0026 26035.6 -03476.7 -07.6060 26266.7
 10 08 2013  07 48  -21.0024 26035.7 -03476.7 -07.6059 26266.8
 10 08 2013  07 49  -21.0022 26035.6 -03476.6 -07.6058 26266.7
 10 08 2013  07 50  -21.0021 26035.4 -03476.5 -07.6056 26266.5
 10 08 2013  07 51  -21.0020 26035.1 -03476.3 -07.6053 26266.1
 10 08 2013  07 52  -21.0019 26034.9 -03476.2 -07.6052 26266.0
 10 08 2013  07 53  -21.0019 26034.8 -03476.2 -07.6052 26265.8
 10 08 2013  07 54  -21.0019 26034.5 -03476.1 -07.6050 26265.6
 10 08 2013  07 55  -21.0020 26034.3 -03476.0 -07.6049 26265.3
 10 08 2013  07 56  -21.0020 26034.3 -03476.0 -07.6049 26265.3
 10 08 2013  07 57  -21.0019 26034.4 -03476.1 -07.6051 26265.4
 10 08 2013  07 58  -21.0016 26034.4 -03476.1 -07.6051 26265.4
 10 08 2013  07 59  -21.0014 26034.4 -03476.1 -07.6052 26265.4
 10 08 2013  08 00  -21.0011 26034.3 -03476.1 -07.6052 26265.4
 10 08 2013  08 01  -21.0008 26034.2 -03476.0 -07.6050 26265.2
 10 08 2013  08 02  -21.0005 26034.0 -03476.0 -07.6049 26265.0
 10 08 2013  08 03  -21.0003 26034.0 -03476.0 -07.6049 26265.0
 10 08 2013  08 04  -21.0001 26034.2 -03476.1 -07.6052 26265.2
 10 08 2013  08 05  -20.9995 26034.5 -03476.3 -07.6055 26265.6
 10 08 2013  08 06  -20.9990 26034.9 -03476.6 -07.6060 26266.0
 10 08 2013  08 07  -20.9981 26035.1 -03476.7 -07.6062 26266.2
 10 08 2013  08 08  -20.9970 26035.4 -03476.9 -07.6065 26266.5
 10 08 2013  08 09  -20.9961 26035.6 -03477.0 -07.6067 26266.8
 10 08 2013  08 10  -20.9952 26035.7 -03477.1 -07.6069 26266.9
 10 08 2013  08 11  -20.9943 26035.8 -03477.1 -07.6069 26266.9
 10 08 2013  08 12  -20.9934 26035.7 -03477.0 -07.6067 26266.9
 10 08 2013  08 13  -20.9927 26035.5 -03476.9 -07.6066 26266.6
 10 08 2013  08 14  -20.9921 26035.5 -03476.9 -07.6066 26266.6
 10 08 2013  08 15  -20.9916 26035.5 -03477.0 -07.6067 26266.6
 10 08 2013  08 16  -20.9912 26035.5 -03477.0 -07.6068 26266.6
 10 08 2013  08 17  -20.9909 26035.5 -03477.1 -07.6069 26266.6
 10 08 2013  08 18  -20.9909 26035.4 -03477.1 -07.6070 26266.6
 10 08 2013  08 19  -20.9909 26035.8 -03477.3 -07.6073 26266.9
 10 08 2013  08 20  -20.9909 26036.2 -03477.6 -07.6077 26267.4
 10 08 2013  08 21  -20.9906 26036.4 -03477.7 -07.6080 26267.6
 10 08 2013  08 22  -20.9906 26036.4 -03477.8 -07.6081 26267.7
 10 08 2013  08 23  -20.9907 26036.5 -03477.8 -07.6082 26267.7
 10 08 2013  08 24  -20.9904 26036.4 -03477.8 -07.6081 26267.7
 10 08 2013  08 25  -20.9902 26036.4 -03477.7 -07.6080 26267.6
 10 08 2013  08 26  -20.9903 26036.4 -03477.7 -07.6080 26267.6
 10 08 2013  08 27  -20.9906 26036.4 -03477.7 -07.6080 26267.6
 10 08 2013  08 28  -20.9907 26036.3 -03477.6 -07.6078 26267.5
 10 08 2013  08 29  -20.9912 26035.9 -03477.5 -07.6076 26267.1
 10 08 2013  08 30  -20.9915 26035.6 -03477.2 -07.6072 26266.8
 10 08 2013  08 31  -20.9922 26035.5 -03477.1 -07.6070 26266.7
 10 08 2013  08 32  -20.9923 26035.3 -03477.0 -07.6067 26266.4
 10 08 2013  08 33  -20.9921 26035.3 -03476.9 -07.6067 26266.4
 10 08 2013  08 34  -20.9916 26035.2 -03476.8 -07.6064 26266.3
 10 08 2013  08 35  -20.9910 26035.1 -03476.7 -07.6063 26266.2
 10 08 2013  08 36  -20.9907 26035.3 -03476.9 -07.6065 26266.5
 10 08 2013  08 37  -20.9906 26035.6 -03477.1 -07.6070 26266.8
 10 08 2013  08 38  -20.9907 26035.6 -03477.2 -07.6071 26266.8
 10 08 2013  08 39  -20.9905 26035.6 -03477.1 -07.6069 26266.8
 10 08 2013  08 40  -20.9902 26035.6 -03477.1 -07.6069 26266.7
 10 08 2013  08 41  -20.9896 26035.4 -03476.9 -07.6066 26266.5
 10 08 2013  08 42  -20.9894 26035.1 -03476.7 -07.6063 26266.2
 10 08 2013  08 43  -20.9893 26035.0 -03476.7 -07.6062 26266.2
 10 08 2013  08 44  -20.9888 26035.0 -03476.7 -07.6062 26266.1
 10 08 2013  08 45  -20.9885 26035.3 -03476.8 -07.6063 26266.4
 10 08 2013  08 46  -20.9880 26035.4 -03476.8 -07.6064 26266.6
 10 08 2013  08 47  -20.9872 26035.0 -03476.6 -07.6060 26266.1
 10 08 2013  08 48  -20.9862 26034.6 -03476.3 -07.6055 26265.7
 10 08 2013  08 49  -20.9853 26034.6 -03476.3 -07.6055 26265.7
 10 08 2013  08 50  -20.9843 26034.3 -03476.1 -07.6052 26265.3
 10 08 2013  08 51  -20.9833 26034.1 -03476.0 -07.6051 26265.2
 10 08 2013  08 52  -20.9825 26034.0 -03476.1 -07.6052 26265.1
 10 08 2013  08 53  -20.9816 26034.0 -03476.1 -07.6053 26265.0
 10 08 2013  08 54  -20.9807 26033.8 -03476.2 -07.6054 26264.8
 10 08 2013  08 55  -20.9791 26034.1 -03476.4 -07.6059 26265.2
 10 08 2013  08 56  -20.9781 26034.3 -03476.7 -07.6065 26265.4
 10 08 2013  08 57  -20.9778 26033.6 -03476.7 -07.6066 26264.7
 10 08 2013  08 58  -20.9771 26033.7 -03476.9 -07.6070 26264.8
 10 08 2013  08 59  -20.9764 26033.7 -03477.0 -07.6073 26264.8
 10 08 2013  09 00  -20.9761 26033.4 -03477.1 -07.6076 26264.6
 10 08 2013  09 01  -20.9762 26033.4 -03477.4 -07.6082 26264.6
 10 08 2013  09 02  -20.9761 26033.0 -03477.5 -07.6085 26264.3
 10 08 2013  09 03  -20.9760 26032.7 -03477.5 -07.6085 26263.9
 10 08 2013  09 04  -20.9757 26032.6 -03477.5 -07.6088 26263.8
 10 08 2013  09 05  -20.9755 26032.4 -03477.6 -07.6090 26263.6
 10 08 2013  09 06  -20.9752 26032.3 -03477.7 -07.6093 26263.6
 10 08 2013  09 07  -20.9750 26032.2 -03477.9 -07.6095 26263.5
 10 08 2013  09 08  -20.9748 26032.1 -03478.0 -07.6098 26263.5
 10 08 2013  09 09  -20.9743 26032.1 -03478.1 -07.6100 26263.4
 10 08 2013  09 10  -20.9738 26032.0 -03478.2 -07.6103 26263.4
 10 08 2013  09 11  -20.9733 26032.0 -03478.3 -07.6106 26263.4
 10 08 2013  09 12  -20.9728 26031.9 -03478.4 -07.6108 26263.3
 10 08 2013  09 13  -20.9725 26031.9 -03478.5 -07.6111 26263.3
 10 08 2013  09 14  -20.9724 26032.1 -03478.8 -07.6116 26263.5
 10 08 2013  09 15  -20.9718 26032.0 -03479.0 -07.6120 26263.5
 10 08 2013  09 16  -20.9707 26032.2 -03479.2 -07.6124 26263.7
 10 08 2013  09 17  -20.9694 26032.4 -03479.4 -07.6129 26263.9
 10 08 2013  09 18  -20.9686 26032.3 -03479.5 -07.6131 26263.8
 10 08 2013  09 19  -20.9679 26032.4 -03479.7 -07.6134 26263.9
 10 08 2013  09 20  -20.9671 26032.3 -03479.7 -07.6136 26263.8
 10 08 2013  09 21  -20.9668 26032.2 -03479.8 -07.6138 26263.7
 10 08 2013  09 22  -20.9665 26032.3 -03480.0 -07.6143 26263.9
 10 08 2013  09 23  -20.9660 26032.2 -03480.2 -07.6147 26263.8
 10 08 2013  09 24  -20.9656 26032.1 -03480.3 -07.6149 26263.7
 10 08 2013  09 25  -20.9653 26032.1 -03480.5 -07.6152 26263.8
 10 08 2013  09 26  -20.9649 26032.1 -03480.6 -07.6156 26263.7
 10 08 2013  09 27  -20.9649 26032.0 -03480.8 -07.6160 26263.6
 10 08 2013  09 28  -20.9643 26031.9 -03480.9 -07.6163 26263.6
 10 08 2013  09 29  -20.9638 26032.0 -03481.2 -07.6168 26263.8
 10 08 2013  09 30  -20.9635 26032.1 -03481.4 -07.6173 26263.8
 10 08 2013  09 31  -20.9633 26032.1 -03481.7 -07.6178 26263.9
 10 08 2013  09 32  -20.9626 26032.1 -03481.8 -07.6182 26263.9
 10 08 2013  09 33  -20.9625 26032.2 -03482.1 -07.6187 26264.1
 10 08 2013  09 34  -20.9624 26032.3 -03482.3 -07.6192 26264.1
 10 08 2013  09 35  -20.9625 26032.4 -03482.5 -07.6196 26264.3
 10 08 2013  09 36  -20.9620 26032.6 -03482.8 -07.6200 26264.5
 10 08 2013  09 37  -20.9618 26032.9 -03483.1 -07.6207 26264.9
 10 08 2013  09 38  -20.9617 26033.1 -03483.3 -07.6212 26265.1
 10 08 2013  09 39  -20.9620 26033.4 -03483.7 -07.6218 26265.4
 10 08 2013  09 40  -20.9622 26033.5 -03483.9 -07.6222 26265.6
 10 08 2013  09 41  -20.9619 26033.5 -03483.9 -07.6223 26265.6
 10 08 2013  09 42  -20.9624 26033.6 -03484.1 -07.6226 26265.7
 10 08 2013  09 43  -20.9626 26033.7 -03484.2 -07.6229 26265.8
 10 08 2013  09 44  -20.9629 26033.7 -03484.3 -07.6231 26265.8
 10 08 2013  09 45  -20.9633 26033.7 -03484.5 -07.6235 26265.9
 10 08 2013  09 46  -20.9630 26033.8 -03484.7 -07.6238 26266.0
 10 08 2013  09 47  -20.9631 26033.9 -03484.8 -07.6241 26266.1
 10 08 2013  09 48  -20.9637 26033.9 -03484.9 -07.6243 26266.1
 10 08 2013  09 49  -20.9637 26034.0 -03485.1 -07.6246 26266.2
 10 08 2013  09 50  -20.9630 26033.9 -03485.1 -07.6246 26266.1
 10 08 2013  09 51  -20.9630 26034.1 -03485.2 -07.6249 26266.4
 10 08 2013  09 52  -20.9634 26034.2 -03485.4 -07.6252 26266.5
 10 08 2013  09 53  -20.9635 26034.4 -03485.5 -07.6255 26266.7
 10 08 2013  09 54  -20.9636 26034.6 -03485.7 -07.6259 26267.0
 10 08 2013  09 55  -20.9639 26034.6 -03485.9 -07.6262 26266.9
 10 08 2013  09 56  -20.9643 26034.3 -03485.9 -07.6262 26266.7
 10 08 2013  09 57  -20.9646 26034.3 -03485.9 -07.6262 26266.7
 10 08 2013  09 58  -20.9662 26034.1 -03485.9 -07.6264 26266.5
 10 08 2013  09 59  -20.9676 26034.0 -03486.0 -07.6266 26266.3
 10 08 2013  10 00  -20.9685 26034.1 -03486.1 -07.6268 26266.5
 10 08 2013  10 01  -20.9684 26034.4 -03486.2 -07.6270 26266.8
 10 08 2013  10 02  -20.9692 26034.5 -03486.3 -07.6272 26266.8
 10 08 2013  10 03  -20.9700 26034.5 -03486.4 -07.6273 26266.9
 10 08 2013  10 04  -20.9707 26034.6 -03486.6 -07.6277 26267.0
 10 08 2013  10 05  -20.9713 26034.6 -03486.7 -07.6281 26267.0
 10 08 2013  10 06  -20.9713 26034.9 -03487.0 -07.6285 26267.3
 10 08 2013  10 07  -20.9713 26035.0 -03487.1 -07.6287 26267.5
 10 08 2013  10 08  -20.9711 26035.0 -03487.1 -07.6288 26267.4
 10 08 2013  10 09  -20.9709 26034.9 -03487.1 -07.6288 26267.4
 10 08 2013  10 10  -20.9712 26034.9 -03487.2 -07.6289 26267.4
 10 08 2013  10 11  -20.9716 26034.7 -03487.2 -07.6291 26267.3
 10 08 2013  10 12  -20.9715 26034.7 -03487.3 -07.6293 26267.3
 10 08 2013  10 13  -20.9714 26034.9 -03487.5 -07.6295 26267.4
 10 08 2013  10 14  -20.9703 26035.3 -03487.6 -07.6297 26267.8
 10 08 2013  10 15  -20.9700 26035.3 -03487.5 -07.6295 26267.8
 10 08 2013  10 16  -20.9708 26034.9 -03487.4 -07.6294 26267.5
 10 08 2013  10 17  -20.9713 26034.6 -03487.3 -07.6294 26267.1
 10 08 2013  10 18  -20.9716 26034.8 -03487.6 -07.6297 26267.4
 10 08 2013  10 19  -20.9720 26035.2 -03487.8 -07.6303 26267.8
 10 08 2013  10 20  -20.9715 26036.0 -03488.2 -07.6307 26268.6
 10 08 2013  10 21  -20.9712 26036.2 -03488.2 -07.6307 26268.9
 10 08 2013  10 22  -20.9716 26036.2 -03488.1 -07.6305 26268.8
 10 08 2013  10 23  -20.9724 26036.2 -03488.1 -07.6305 26268.8
 10 08 2013  10 24  -20.9740 26036.1 -03488.2 -07.6307 26268.7
 10 08 2013  10 25  -20.9750 26036.3 -03488.3 -07.6310 26269.0
 10 08 2013  10 26  -20.9755 26036.7 -03488.5 -07.6312 26269.4
 10 08 2013  10 27  -20.9761 26037.2 -03488.6 -07.6314 26269.9
 10 08 2013  10 28  -20.9762 26037.6 -03488.7 -07.6315 26270.3
 10 08 2013  10 29  -20.9767 26037.8 -03488.7 -07.6314 26270.5
 10 08 2013  10 30  -20.9777 26037.8 -03488.7 -07.6314 26270.5
 10 08 2013  10 31  -20.9786 26038.0 -03488.7 -07.6314 26270.7
 10 08 2013  10 32  -20.9786 26038.1 -03488.7 -07.6312 26270.8
 10 08 2013  10 33  -20.9796 26037.8 -03488.4 -07.6307 26270.5
 10 08 2013  10 34  -20.9805 26037.5 -03488.3 -07.6305 26270.2
 10 08 2013  10 35  -20.9804 26037.6 -03488.3 -07.6307 26270.2
 10 08 2013  10 36  -20.9799 26037.9 -03488.6 -07.6311 26270.5
 10 08 2013  10 37  -20.9798 26038.3 -03488.8 -07.6315 26271.0
 10 08 2013  10 38  -20.9796 26038.9 -03489.0 -07.6318 26271.6
 10 08 2013  10 39  -20.9799 26039.4 -03489.1 -07.6318 26272.1
 10 08 2013  10 40  -20.9810 26039.7 -03489.1 -07.6317 26272.4
 10 08 2013  10 41  -20.9821 26039.5 -03489.0 -07.6314 26272.2
 10 08 2013  10 42  -20.9827 26039.4 -03488.8 -07.6312 26272.1
 10 08 2013  10 43  -20.9830 26039.4 -03488.7 -07.6310 26272.1
 10 08 2013  10 44  -20.9830 26040.1 -03488.8 -07.6309 26272.8
 10 08 2013  10 45  -20.9832 26040.5 -03488.8 -07.6308 26273.2
 10 08 2013  10 46  -20.9841 26040.4 -03488.5 -07.6303 26273.0
 10 08 2013  10 47  -20.9849 26040.2 -03488.2 -07.6297 26272.8
 10 08 2013  10 48  -20.9866 26040.2 -03488.2 -07.6296 26272.7
 10 08 2013  10 49  -20.9879 26040.4 -03488.3 -07.6296 26273.0
 10 08 2013  10 50  -20.9886 26040.8 -03488.2 -07.6295 26273.4
 10 08 2013  10 51  -20.9898 26041.2 -03488.3 -07.6295 26273.8
 10 08 2013  10 52  -20.9911 26041.6 -03488.3 -07.6295 26274.2
 10 08 2013  10 53  -20.9920 26041.9 -03488.2 -07.6290 26274.5
 10 08 2013  10 54  -20.9931 26042.1 -03488.0 -07.6286 26274.6
 10 08 2013  10 55  -20.9940 26042.4 -03487.8 -07.6282 26274.9
 10 08 2013  10 56  -20.9945 26042.8 -03487.7 -07.6277 26275.3
 10 08 2013  10 57  -20.9955 26043.1 -03487.5 -07.6272 26275.6
 10 08 2013  10 58  -20.9966 26043.3 -03487.3 -07.6267 26275.8
 10 08 2013  10 59  -20.9973 26043.9 -03487.2 -07.6264 26276.3
 10 08 2013  11 00  -20.9982 26044.5 -03487.2 -07.6262 26277.0
 10 08 2013  11 01  -20.9992 26044.8 -03487.0 -07.6257 26277.1
 10 08 2013  11 02  -21.0001 26044.9 -03486.9 -07.6253 26277.3
 10 08 2013  11 03  -21.0009 26045.3 -03486.8 -07.6250 26277.6
 10 08 2013  11 04  -21.0016 26045.7 -03486.6 -07.6246 26278.0
 10 08 2013  11 05  -21.0020 26046.2 -03486.5 -07.6243 26278.5
 10 08 2013  11 06  -21.0027 26046.3 -03486.3 -07.6236 26278.6
 10 08 2013  11 07  -21.0034 26046.5 -03485.9 -07.6228 26278.7
 10 08 2013  11 08  -21.0043 26046.7 -03485.7 -07.6223 26278.9
 10 08 2013  11 09  -21.0054 26046.6 -03485.5 -07.6219 26278.8
 10 08 2013  11 10  -21.0061 26046.9 -03485.5 -07.6218 26279.0
 10 08 2013  11 11  -21.0065 26047.4 -03485.4 -07.6214 26279.6
 10 08 2013  11 12  -21.0072 26047.8 -03485.2 -07.6210 26279.9
 10 08 2013  11 13  -21.0081 26047.8 -03485.1 -07.6206 26279.9
 10 08 2013  11 14  -21.0090 26047.8 -03484.9 -07.6202 26279.8
 10 08 2013  11 15  -21.0096 26048.1 -03484.8 -07.6200 26280.1
 10 08 2013  11 16  -21.0095 26048.8 -03484.8 -07.6198 26280.9
 10 08 2013  11 17  -21.0095 26049.4 -03484.9 -07.6197 26281.5
 10 08 2013  11 18  -21.0096 26050.0 -03484.9 -07.6196 26282.0
 10 08 2013  11 19  -21.0095 26050.7 -03485.0 -07.6195 26282.8
 10 08 2013  11 20  -21.0097 26051.4 -03484.9 -07.6193 26283.4
 10 08 2013  11 21  -21.0095 26051.8 -03484.7 -07.6187 26283.8
 10 08 2013  11 22  -21.0095 26052.1 -03484.4 -07.6179 26284.1
 10 08 2013  11 23  -21.0096 26052.4 -03484.1 -07.6173 26284.3
 10 08 2013  11 24  -21.0103 26052.1 -03483.7 -07.6165 26283.9
 10 08 2013  11 25  -21.0110 26051.9 -03483.4 -07.6158 26283.8
 10 08 2013  11 26  -21.0110 26052.8 -03483.5 -07.6159 26284.6
 10 08 2013  11 27  -21.0111 26053.2 -03483.4 -07.6155 26285.0
 10 08 2013  11 28  -21.0120 26052.7 -03482.9 -07.6145 26284.5
 10 08 2013  11 29  -21.0122 26053.4 -03482.9 -07.6144 26285.2
 10 08 2013  11 30  -21.0125 26054.1 -03483.0 -07.6144 26285.9
 10 08 2013  11 31  -21.0129 26054.5 -03482.9 -07.6141 26286.3
 10 08 2013  11 32  -21.0130 26055.0 -03482.8 -07.6137 26286.8
 10 08 2013  11 33  -21.0127 26055.7 -03482.9 -07.6136 26287.5
 10 08 2013  11 34  -21.0125 26056.5 -03482.9 -07.6133 26288.3
 10 08 2013  11 35  -21.0121 26057.1 -03482.8 -07.6129 26288.9
 10 08 2013  11 36  -21.0119 26057.6 -03482.6 -07.6125 26289.3
 10 08 2013  11 37  -21.0120 26058.0 -03482.5 -07.6121 26289.7
 10 08 2013  11 38  -21.0126 26058.2 -03482.3 -07.6116 26289.9
 10 08 2013  11 39  -21.0128 26058.6 -03482.2 -07.6112 26290.3
 10 08 2013  11 40  -21.0133 26058.8 -03482.0 -07.6108 26290.4
 10 08 2013  11 41  -21.0137 26059.2 -03481.9 -07.6104 26290.8
 10 08 2013  11 42  -21.0145 26058.8 -03481.5 -07.6097 26290.4
 10 08 2013  11 43  -21.0148 26059.0 -03481.3 -07.6093 26290.5
 10 08 2013  11 44  -21.0145 26059.9 -03481.5 -07.6093 26291.4
 10 08 2013  11 45  -21.0147 26060.1 -03481.3 -07.6090 26291.6
 10 08 2013  11 46  -21.0149 26060.0 -03481.0 -07.6082 26291.4
 10 08 2013  11 47  -21.0146 26060.3 -03480.9 -07.6081 26291.8
 10 08 2013  11 48  -21.0150 26060.4 -03480.8 -07.6078 26291.9
 10 08 2013  11 49  -21.0156 26060.6 -03480.7 -07.6075 26292.0
 10 08 2013  11 50  -21.0158 26060.8 -03480.6 -07.6072 26292.2
 10 08 2013  11 51  -21.0159 26061.4 -03480.6 -07.6071 26292.8
 10 08 2013  11 52  -21.0162 26061.6 -03480.5 -07.6067 26293.0
 10 08 2013  11 53  -21.0163 26061.9 -03480.3 -07.6063 26293.2
 10 08 2013  11 54  -21.0161 26062.6 -03480.4 -07.6062 26293.9
 10 08 2013  11 55  -21.0162 26062.7 -03480.2 -07.6059 26294.0
 10 08 2013  11 56  -21.0161 26063.5 -03480.3 -07.6059 26294.8
 10 08 2013  11 57  -21.0165 26064.0 -03480.3 -07.6057 26295.3
 10 08 2013  11 58  -21.0167 26064.5 -03480.3 -07.6055 26295.8
 10 08 2013  11 59  -21.0171 26065.3 -03480.4 -07.6054 26296.7
 10 08 2013  12 00  -21.0176 26065.7 -03480.2 -07.6049 26297.0
 10 08 2013  12 01  -21.0184 26065.9 -03479.9 -07.6041 26297.2
 10 08 2013  12 02  -21.0183 26066.1 -03479.6 -07.6035 26297.3
 10 08 2013  12 03  -21.0181 26066.3 -03479.4 -07.6030 26297.5
 10 08 2013  12 04  -21.0184 26066.2 -03479.2 -07.6025 26297.4
 10 08 2013  12 05  -21.0189 26066.3 -03479.0 -07.6021 26297.4
 10 08 2013  12 06  -21.0189 26066.6 -03478.9 -07.6020 26297.7
 10 08 2013  12 07  -21.0189 26067.0 -03479.0 -07.6019 26298.2
 10 08 2013  12 08  -21.0188 26067.2 -03478.8 -07.6016 26298.3
 10 08 2013  12 09  -21.0184 26067.7 -03478.9 -07.6016 26298.8
 10 08 2013  12 10  -21.0182 26068.5 -03479.1 -07.6018 26299.6
 10 08 2013  12 11  -21.0183 26068.9 -03479.1 -07.6015 26300.0
 10 08 2013  12 12  -21.0181 26069.3 -03479.0 -07.6013 26300.4
 10 08 2013  12 13  -21.0184 26069.7 -03479.0 -07.6011 26300.8
 10 08 2013  12 14  -21.0189 26069.9 -03478.8 -07.6007 26301.0
 10 08 2013  12 15  -21.0191 26070.3 -03478.8 -07.6005 26301.3
 10 08 2013  12 16  -21.0194 26070.7 -03478.7 -07.6003 26301.7
 10 08 2013  12 17  -21.0198 26070.9 -03478.6 -07.5999 26302.0
 10 08 2013  12 18  -21.0205 26071.2 -03478.4 -07.5995 26302.2
 10 08 2013  12 19  -21.0207 26071.2 -03478.2 -07.5990 26302.2
 10 08 2013  12 20  -21.0206 26071.8 -03478.2 -07.5989 26302.7
 10 08 2013  12 21  -21.0210 26072.8 -03478.5 -07.5991 26303.8
 10 08 2013  12 22  -21.0217 26073.6 -03478.5 -07.5990 26304.6
 10 08 2013  12 23  -21.0217 26074.2 -03478.3 -07.5984 26305.2
 10 08 2013  12 24  -21.0217 26074.8 -03478.3 -07.5981 26305.8
 10 08 2013  12 25  -21.0219 26075.3 -03478.1 -07.5975 26306.2
 10 08 2013  12 26  -21.0230 26075.8 -03477.9 -07.5971 26306.7
 10 08 2013  12 27  -21.0238 26076.2 -03477.6 -07.5962 26307.1
 10 08 2013  12 28  -21.0239 26076.9 -03477.4 -07.5956 26307.7
 10 08 2013  12 29  -21.0236 26077.3 -03477.2 -07.5950 26308.1
 10 08 2013  12 30  -21.0233 26077.7 -03477.0 -07.5946 26308.5
 10 08 2013  12 31  -21.0232 26078.2 -03476.9 -07.5943 26308.9
 10 08 2013  12 32  -21.0232 26078.5 -03476.8 -07.5940 26309.3
 10 08 2013  12 33  -21.0234 26079.1 -03476.8 -07.5938 26309.8
 10 08 2013  12 34  -21.0232 26079.4 -03476.7 -07.5933 26310.1
 10 08 2013  12 35  -21.0225 26079.6 -03476.5 -07.5929 26310.3
 10 08 2013  12 36  -21.0223 26079.6 -03476.3 -07.5925 26310.3
 10 08 2013  12 37  -21.0220 26079.8 -03476.2 -07.5922 26310.5
 10 08 2013  12 38  -21.0220 26080.3 -03476.2 -07.5922 26311.0
 10 08 2013  12 39  -21.0222 26081.2 -03476.4 -07.5924 26311.9
 10 08 2013  12 40  -21.0223 26081.7 -03476.5 -07.5922 26312.4
 10 08 2013  12 41  -21.0223 26082.2 -03476.4 -07.5920 26312.9
 10 08 2013  12 42  -21.0221 26082.1 -03476.1 -07.5913 26312.7
 10 08 2013  12 43  -21.0223 26081.9 -03475.8 -07.5908 26312.5
 10 08 2013  12 44  -21.0220 26081.6 -03475.5 -07.5903 26312.1
 10 08 2013  12 45  -21.0218 26081.9 -03475.6 -07.5904 26312.5
 10 08 2013  12 46  -21.0223 26082.2 -03475.8 -07.5906 26312.8
 10 08 2013  12 47  -21.0223 26082.6 -03475.8 -07.5906 26313.1
 10 08 2013  12 48  -21.0221 26083.0 -03475.9 -07.5907 26313.6
 10 08 2013  12 49  -21.0218 26083.3 -03475.9 -07.5907 26313.9
 10 08 2013  12 50  -21.0210 26083.7 -03476.1 -07.5909 26314.3
 10 08 2013  12 51  -21.0209 26085.5 -03476.8 -07.5920 26316.2
 10 08 2013  12 52  -21.0213 26087.4 -03477.4 -07.5927 26318.1
 10 08 2013  12 53  -21.0215 26089.0 -03477.7 -07.5928 26319.7
 10 08 2013  12 54  -21.0204 26090.0 -03477.6 -07.5924 26320.7
 10 08 2013  12 55  -21.0202 26090.6 -03477.5 -07.5920 26321.4
 10 08 2013  12 56  -21.0201 26091.4 -03477.4 -07.5916 26322.1
 10 08 2013  12 57  -21.0201 26092.8 -03477.7 -07.5917 26323.5
 10 08 2013  12 58  -21.0200 26094.8 -03478.1 -07.5921 26325.6
 10 08 2013  12 59  -21.0203 26096.1 -03478.2 -07.5919 26326.8
 10 08 2013  13 00  -21.0205 26096.7 -03478.0 -07.5912 26327.4
 10 08 2013  13 01  -21.0206 26096.9 -03477.7 -07.5905 26327.6
 10 08 2013  13 02  -21.0207 26097.7 -03477.6 -07.5901 26328.4
 10 08 2013  13 03  -21.0212 26098.6 -03477.5 -07.5897 26329.2
 10 08 2013  13 04  -21.0216 26099.1 -03477.2 -07.5889 26329.7
 10 08 2013  13 05  -21.0211 26099.0 -03476.7 -07.5878 26329.5
 10 08 2013  13 06  -21.0204 26099.0 -03476.3 -07.5870 26329.5
 10 08 2013  13 07  -21.0205 26099.9 -03476.5 -07.5870 26330.5
 10 08 2013  13 08  -21.0206 26100.6 -03476.4 -07.5866 26331.0
 10 08 2013  13 09  -21.0203 26101.0 -03476.2 -07.5861 26331.4
 10 08 2013  13 10  -21.0206 26101.5 -03476.1 -07.5858 26331.9
 10 08 2013  13 11  -21.0206 26101.0 -03475.6 -07.5848 26331.4
 10 08 2013  13 12  -21.0203 26100.6 -03475.1 -07.5839 26330.9
 10 08 2013  13 13  -21.0202 26100.6 -03474.9 -07.5835 26330.9
 10 08 2013  13 14  -21.0203 26100.8 -03474.8 -07.5833 26331.0
 10 08 2013  13 15  -21.0206 26100.3 -03474.6 -07.5829 26330.5
 10 08 2013  13 16  -21.0211 26100.3 -03474.5 -07.5827 26330.6
 10 08 2013  13 17  -21.0214 26100.4 -03474.5 -07.5826 26330.7
 10 08 2013  13 18  -21.0223 26100.2 -03474.2 -07.5821 26330.4
 10 08 2013  13 19  -21.0232 26100.3 -03474.2 -07.5820 26330.6
 10 08 2013  13 20  -21.0238 26100.3 -03474.1 -07.5818 26330.5
 10 08 2013  13 21  -21.0241 26100.2 -03473.9 -07.5814 26330.4
 10 08 2013  13 22  -21.0242 26100.1 -03473.7 -07.5810 26330.2
 10 08 2013  13 23  -21.0246 26099.9 -03473.6 -07.5808 26330.0
 10 08 2013  13 24  -21.0250 26099.6 -03473.4 -07.5805 26329.7
 10 08 2013  13 25  -21.0253 26099.2 -03473.2 -07.5802 26329.3
 10 08 2013  13 26  -21.0255 26099.2 -03473.2 -07.5802 26329.3
 10 08 2013  13 27  -21.0255 26099.3 -03473.2 -07.5801 26329.4
 10 08 2013  13 28  -21.0253 26099.5 -03473.2 -07.5801 26329.6
 10 08 2013  13 29  -21.0257 26099.5 -03473.2 -07.5801 26329.5
 10 08 2013  13 30  -21.0258 26099.2 -03473.1 -07.5799 26329.2
 10 08 2013  13 31  -21.0257 26099.0 -03473.0 -07.5798 26329.0
 10 08 2013  13 32  -21.0255 26099.7 -03473.3 -07.5802 26329.8
 10 08 2013  13 33  -21.0256 26100.4 -03473.5 -07.5804 26330.5
 10 08 2013  13 34  -21.0254 26100.2 -03473.2 -07.5799 26330.3
 10 08 2013  13 35  -21.0254 26099.9 -03473.0 -07.5796 26329.9
 10 08 2013  13 36  -21.0253 26100.1 -03473.1 -07.5796 26330.2
 10 08 2013  13 37  -21.0252 26099.8 -03472.9 -07.5793 26329.8
 10 08 2013  13 38  -21.0251 26099.8 -03472.8 -07.5792 26329.8
 10 08 2013  13 39  -21.0249 26099.4 -03472.7 -07.5789 26329.5
 10 08 2013  13 40  -21.0252 26098.9 -03472.5 -07.5788 26328.9
 10 08 2013  13 41  -21.0258 26098.3 -03472.4 -07.5786 26328.3
 10 08 2013  13 42  -21.0258 26098.0 -03472.3 -07.5787 26328.0
 10 08 2013  13 43  -21.0256 26098.0 -03472.4 -07.5789 26328.0
 10 08 2013  13 44  -21.0253 26097.9 -03472.5 -07.5791 26327.9
 10 08 2013  13 45  -21.0254 26098.2 -03472.7 -07.5795 26328.3
 10 08 2013  13 46  -21.0258 26098.4 -03472.8 -07.5796 26328.5
 10 08 2013  13 47  -21.0257 26098.6 -03472.8 -07.5795 26328.6
 10 08 2013  13 48  -21.0261 26098.6 -03472.8 -07.5796 26328.6
 10 08 2013  13 49  -21.0266 26098.3 -03472.7 -07.5793 26328.3
 10 08 2013  13 50  -21.0266 26097.8 -03472.4 -07.5789 26327.8
 10 08 2013  13 51  -21.0270 26097.7 -03472.4 -07.5788 26327.7
 10 08 2013  13 52  -21.0275 26097.4 -03472.2 -07.5786 26327.4
 10 08 2013  13 53  -21.0280 26097.5 -03472.2 -07.5785 26327.4
 10 08 2013  13 54  -21.0283 26097.2 -03472.0 -07.5782 26327.1
 10 08 2013  13 55  -21.0293 26097.0 -03471.9 -07.5780 26326.9
 10 08 2013  13 56  -21.0301 26096.4 -03471.5 -07.5773 26326.3
 10 08 2013  13 57  -21.0301 26095.6 -03471.0 -07.5765 26325.4
 10 08 2013  13 58  -21.0300 26095.2 -03470.8 -07.5761 26325.0
 10 08 2013  13 59  -21.0302 26094.9 -03470.8 -07.5762 26324.7
 10 08 2013  14 00  -21.0307 26094.9 -03470.8 -07.5763 26324.7
 10 08 2013  14 01  -21.0315 26095.2 -03470.9 -07.5764 26325.0
 10 08 2013  14 02  -21.0320 26095.1 -03470.7 -07.5760 26324.9
 10 08 2013  14 03  -21.0322 26094.4 -03470.3 -07.5753 26324.2
 10 08 2013  14 04  -21.0324 26094.1 -03470.1 -07.5750 26323.8
 10 08 2013  14 05  -21.0326 26094.2 -03470.1 -07.5750 26324.0
 10 08 2013  14 06  -21.0330 26094.4 -03470.1 -07.5749 26324.1
 10 08 2013  14 07  -21.0333 26094.7 -03470.1 -07.5748 26324.4
 10 08 2013  14 08  -21.0334 26094.8 -03470.0 -07.5746 26324.5
 10 08 2013  14 09  -21.0337 26095.1 -03470.0 -07.5744 26324.8
 10 08 2013  14 10  -21.0337 26095.3 -03469.9 -07.5742 26325.0
 10 08 2013  14 11  -21.0338 26095.6 -03469.9 -07.5741 26325.3
 10 08 2013  14 12  -21.0339 26095.9 -03469.9 -07.5740 26325.6
 10 08 2013  14 13  -21.0340 26096.2 -03469.9 -07.5740 26325.9
 10 08 2013  14 14  -21.0344 26096.8 -03470.0 -07.5740 26326.5
 10 08 2013  14 15  -21.0349 26097.4 -03470.0 -07.5738 26327.1
 10 08 2013  14 16  -21.0355 26098.0 -03470.0 -07.5736 26327.7
 10 08 2013  14 17  -21.0356 26098.2 -03469.7 -07.5730 26327.9
 10 08 2013  14 18  -21.0360 26098.2 -03469.5 -07.5724 26327.8
 10 08 2013  14 19  -21.0362 26098.1 -03469.2 -07.5718 26327.7
 10 08 2013  14 20  -21.0361 26097.9 -03468.9 -07.5713 26327.5
 10 08 2013  14 21  -21.0361 26097.8 -03468.7 -07.5710 26327.3
 10 08 2013  14 22  -21.0364 26097.8 -03468.7 -07.5708 26327.3
 10 08 2013  14 23  -21.0367 26097.6 -03468.5 -07.5705 26327.1
 10 08 2013  14 24  -21.0370 26097.7 -03468.4 -07.5703 26327.2
 10 08 2013  14 25  -21.0373 26097.8 -03468.3 -07.5701 26327.2
 10 08 2013  14 26  -21.0376 26097.7 -03468.2 -07.5698 26327.1
 10 08 2013  14 27  -21.0381 26097.7 -03468.1 -07.5696 26327.1
 10 08 2013  14 28  -21.0382 26097.7 -03468.0 -07.5695 26327.1
 10 08 2013  14 29  -21.0384 26097.7 -03468.0 -07.5693 26327.1
 10 08 2013  14 30  -21.0388 26097.8 -03467.9 -07.5692 26327.2
 10 08 2013  14 31  -21.0393 26097.9 -03467.9 -07.5691 26327.3
 10 08 2013  14 32  -21.0396 26097.9 -03467.8 -07.5689 26327.3
 10 08 2013  14 33  -21.0397 26097.8 -03467.6 -07.5686 26327.2
 10 08 2013  14 34  -21.0400 26097.7 -03467.5 -07.5684 26327.1
 10 08 2013  14 35  -21.0401 26097.6 -03467.4 -07.5681 26326.9
 10 08 2013  14 36  -21.0402 26097.4 -03467.3 -07.5679 26326.8
 10 08 2013  14 37  -21.0403 26097.2 -03467.1 -07.5677 26326.5
 10 08 2013  14 38  -21.0404 26097.2 -03467.1 -07.5676 26326.5
 10 08 2013  14 39  -21.0405 26096.9 -03467.0 -07.5674 26326.2
 10 08 2013  14 40  -21.0409 26097.0 -03467.0 -07.5675 26326.3
 10 08 2013  14 41  -21.0411 26096.8 -03466.9 -07.5673 26326.1
 10 08 2013  14 42  -21.0413 26096.6 -03466.8 -07.5671 26325.8
 10 08 2013  14 43  -21.0419 26096.6 -03466.8 -07.5671 26325.9
 10 08 2013  14 44  -21.0421 26096.7 -03466.8 -07.5671 26326.0
 10 08 2013  14 45  -21.0423 26096.6 -03466.7 -07.5669 26325.8
 10 08 2013  14 46  -21.0422 26096.5 -03466.6 -07.5666 26325.8
 10 08 2013  14 47  -21.0421 26096.3 -03466.4 -07.5663 26325.5
 10 08 2013  14 48  -21.0419 26096.1 -03466.3 -07.5661 26325.3
 10 08 2013  14 49  -21.0418 26096.0 -03466.2 -07.5660 26325.2
 10 08 2013  14 50  -21.0418 26095.9 -03466.1 -07.5658 26325.1
 10 08 2013  14 51  -21.0416 26095.9 -03466.1 -07.5657 26325.1
 10 08 2013  14 52  -21.0414 26096.1 -03466.1 -07.5657 26325.3
 10 08 2013  14 53  -21.0409 26096.1 -03466.0 -07.5656 26325.3
 10 08 2013  14 54  -21.0404 26096.3 -03466.1 -07.5656 26325.5
 10 08 2013  14 55  -21.0397 26096.6 -03466.0 -07.5655 26325.8
 10 08 2013  14 56  -21.0393 26096.8 -03466.1 -07.5655 26326.0
 10 08 2013  14 57  -21.0390 26096.9 -03466.0 -07.5653 26326.1
 10 08 2013  14 58  -21.0384 26097.0 -03465.9 -07.5651 26326.2
 10 08 2013  14 59  -21.0378 26097.2 -03465.9 -07.5650 26326.3
 10 08 2013  15 00  -21.0368 26097.2 -03465.8 -07.5649 26326.3
 10 08 2013  15 01  -21.0360 26097.0 -03465.8 -07.5648 26326.1
 10 08 2013  15 02  -21.0354 26097.0 -03465.8 -07.5648 26326.1
 10 08 2013  15 03  -21.0349 26097.3 -03466.0 -07.5651 26326.4
 10 08 2013  15 04  -21.0344 26097.7 -03466.1 -07.5654 26326.9
 10 08 2013  15 05  -21.0342 26098.1 -03466.3 -07.5656 26327.3
 10 08 2013  15 06  -21.0338 26098.3 -03466.3 -07.5657 26327.5
 10 08 2013  15 07  -21.0336 26098.3 -03466.3 -07.5655 26327.5
 10 08 2013  15 08  -21.0333 26098.2 -03466.2 -07.5654 26327.3
 10 08 2013  15 09  -21.0330 26097.9 -03466.1 -07.5652 26327.1
 10 08 2013  15 10  -21.0327 26097.7 -03466.0 -07.5651 26326.9
 10 08 2013  15 11  -21.0325 26097.6 -03466.0 -07.5651 26326.8
 10 08 2013  15 12  -21.0320 26097.1 -03465.8 -07.5648 26326.2
 10 08 2013  15 13  -21.0317 26096.7 -03465.7 -07.5646 26325.8
 10 08 2013  15 14  -21.0315 26096.6 -03465.7 -07.5647 26325.7
 10 08 2013  15 15  -21.0313 26096.5 -03465.7 -07.5648 26325.6
 10 08 2013  15 16  -21.0311 26096.4 -03465.7 -07.5648 26325.5
 10 08 2013  15 17  -21.0307 26096.2 -03465.7 -07.5648 26325.3
 10 08 2013  15 18  -21.0301 26096.0 -03465.6 -07.5647 26325.1
 10 08 2013  15 19  -21.0297 26096.1 -03465.7 -07.5650 26325.3
 10 08 2013  15 20  -21.0293 26096.0 -03465.7 -07.5650 26325.1
 10 08 2013  15 21  -21.0290 26096.0 -03465.7 -07.5649 26325.1
 10 08 2013  15 22  -21.0286 26096.1 -03465.7 -07.5650 26325.2
 10 08 2013  15 23  -21.0281 26096.1 -03465.7 -07.5649 26325.2
 10 08 2013  15 24  -21.0275 26095.9 -03465.5 -07.5646 26325.0
 10 08 2013  15 25  -21.0269 26095.8 -03465.5 -07.5645 26324.9
 10 08 2013  15 26  -21.0262 26095.5 -03465.3 -07.5643 26324.5
 10 08 2013  15 27  -21.0254 26095.1 -03465.2 -07.5641 26324.1
 10 08 2013  15 28  -21.0247 26094.7 -03465.1 -07.5639 26323.8
 10 08 2013  15 29  -21.0240 26094.4 -03465.0 -07.5639 26323.5
 10 08 2013  15 30  -21.0235 26094.4 -03465.1 -07.5640 26323.4
 10 08 2013  15 31  -21.0229 26094.1 -03465.1 -07.5641 26323.2
 10 08 2013  15 32  -21.0221 26093.8 -03465.0 -07.5641 26322.8
 10 08 2013  15 33  -21.0212 26093.5 -03465.0 -07.5642 26322.6
 10 08 2013  15 34  -21.0204 26093.3 -03465.0 -07.5643 26322.4
 10 08 2013  15 35  -21.0200 26093.2 -03465.1 -07.5645 26322.3
 10 08 2013  15 36  -21.0196 26093.3 -03465.3 -07.5648 26322.4
 10 08 2013  15 37  -21.0191 26093.1 -03465.3 -07.5648 26322.2
 10 08 2013  15 38  -21.0185 26093.0 -03465.3 -07.5649 26322.1
 10 08 2013  15 39  -21.0178 26092.7 -03465.3 -07.5650 26321.8
 10 08 2013  15 40  -21.0170 26092.4 -03465.3 -07.5650 26321.5
 10 08 2013  15 41  -21.0163 26092.2 -03465.3 -07.5652 26321.3
 10 08 2013  15 42  -21.0161 26092.2 -03465.5 -07.5657 26321.4
 10 08 2013  15 43  -21.0158 26092.0 -03465.6 -07.5659 26321.2
 10 08 2013  15 44  -21.0156 26092.1 -03465.7 -07.5661 26321.2
 10 08 2013  15 45  -21.0155 26092.0 -03465.8 -07.5662 26321.2
 10 08 2013  15 46  -21.0153 26092.0 -03465.8 -07.5663 26321.2
 10 08 2013  15 47  -21.0151 26092.0 -03465.8 -07.5664 26321.2
 10 08 2013  15 48  -21.0147 26091.7 -03465.8 -07.5663 26320.9
 10 08 2013  15 49  -21.0144 26091.4 -03465.7 -07.5663 26320.6
 10 08 2013  15 50  -21.0140 26091.2 -03465.7 -07.5662 26320.3
 10 08 2013  15 51  -21.0137 26091.1 -03465.7 -07.5663 26320.2
 10 08 2013  15 52  -21.0134 26090.9 -03465.6 -07.5662 26320.1
 10 08 2013  15 53  -21.0133 26090.9 -03465.6 -07.5662 26320.0
 10 08 2013  15 54  -21.0132 26090.8 -03465.6 -07.5662 26320.0
 10 08 2013  15 55  -21.0128 26090.6 -03465.5 -07.5660 26319.7
 10 08 2013  15 56  -21.0125 26090.3 -03465.4 -07.5658 26319.5
 10 08 2013  15 57  -21.0121 26090.0 -03465.2 -07.5657 26319.1
 10 08 2013  15 58  -21.0115 26089.6 -03465.1 -07.5656 26318.7
 10 08 2013  15 59  -21.0109 26089.2 -03465.0 -07.5654 26318.3
 10 08 2013  16 00  -21.0103 26088.9 -03465.0 -07.5655 26318.0
 10 08 2013  16 01  -21.0099 26088.7 -03465.1 -07.5656 26317.8
 10 08 2013  16 02  -21.0094 26088.4 -03465.1 -07.5657 26317.6
 10 08 2013  16 03  -21.0090 26088.3 -03465.1 -07.5659 26317.4
 10 08 2013  16 04  -21.0087 26088.3 -03465.3 -07.5662 26317.4
 10 08 2013  16 05  -21.0082 26088.2 -03465.4 -07.5664 26317.3
 10 08 2013  16 06  -21.0077 26088.1 -03465.5 -07.5666 26317.3
 10 08 2013  16 07  -21.0071 26088.0 -03465.5 -07.5668 26317.2
 10 08 2013  16 08  -21.0064 26087.9 -03465.6 -07.5669 26317.1
 10 08 2013  16 09  -21.0058 26087.9 -03465.7 -07.5672 26317.1
 10 08 2013  16 10  -21.0054 26087.9 -03465.8 -07.5674 26317.1
 10 08 2013  16 11  -21.0048 26087.8 -03465.8 -07.5675 26317.0
 10 08 2013  16 12  -21.0045 26087.5 -03465.8 -07.5676 26316.7
 10 08 2013  16 13  -21.0042 26087.2 -03465.8 -07.5676 26316.4
 10 08 2013  16 14  -21.0037 26086.7 -03465.6 -07.5674 26315.9
 10 08 2013  16 15  -21.0029 26086.1 -03465.5 -07.5673 26315.3
 10 08 2013  16 16  -21.0020 26085.4 -03465.4 -07.5673 26314.6
 10 08 2013  16 17  -21.0012 26085.0 -03465.4 -07.5675 26314.2
 10 08 2013  16 18  -21.0008 26085.0 -03465.7 -07.5680 26314.2
 10 08 2013  16 19  -21.0005 26084.9 -03465.8 -07.5684 26314.1
 10 08 2013  16 20  -21.0000 26084.8 -03466.0 -07.5688 26314.1
 10 08 2013  16 21  -20.9994 26085.0 -03466.2 -07.5692 26314.3
 10 08 2013  16 22  -20.9989 26085.2 -03466.5 -07.5699 26314.5
 10 08 2013  16 23  -20.9984 26085.1 -03466.7 -07.5702 26314.5
 10 08 2013  16 24  -20.9981 26085.1 -03466.8 -07.5705 26314.5
 10 08 2013  16 25  -20.9980 26085.0 -03466.9 -07.5707 26314.4
 10 08 2013  16 26  -20.9976 26084.6 -03466.9 -07.5708 26314.0
 10 08 2013  16 27  -20.9969 26083.9 -03466.8 -07.5707 26313.3
 10 08 2013  16 28  -20.9966 26083.5 -03466.8 -07.5709 26312.9
 10 08 2013  16 29  -20.9964 26083.1 -03466.9 -07.5712 26312.5
 10 08 2013  16 30  -20.9960 26082.4 -03466.9 -07.5713 26311.8
 10 08 2013  16 31  -20.9955 26081.7 -03466.8 -07.5713 26311.0
 10 08 2013  16 32  -20.9949 26080.8 -03466.7 -07.5715 26310.1
 10 08 2013  16 33  -20.9944 26080.1 -03466.8 -07.5719 26309.5
 10 08 2013  16 34  -20.9943 26079.9 -03467.1 -07.5726 26309.4
 10 08 2013  16 35  -20.9944 26079.8 -03467.4 -07.5733 26309.3
 10 08 2013  16 36  -20.9946 26079.8 -03467.7 -07.5739 26309.3
 10 08 2013  16 37  -20.9943 26079.6 -03467.9 -07.5744 26309.1
 10 08 2013  16 38  -20.9939 26079.5 -03468.1 -07.5749 26309.1
 10 08 2013  16 39  -20.9939 26079.4 -03468.4 -07.5755 26309.0
 10 08 2013  16 40  -20.9938 26079.2 -03468.5 -07.5759 26308.8
 10 08 2013  16 41  -20.9937 26078.8 -03468.6 -07.5761 26308.5
 10 08 2013  16 42  -20.9936 26078.3 -03468.7 -07.5764 26307.9
 10 08 2013  16 43  -20.9934 26077.8 -03468.7 -07.5767 26307.5
 10 08 2013  16 44  -20.9934 26077.4 -03468.8 -07.5770 26307.1
 10 08 2013  16 45  -20.9932 26076.9 -03468.9 -07.5774 26306.7
 10 08 2013  16 46  -20.9931 26076.6 -03469.0 -07.5777 26306.3
 10 08 2013  16 47  -20.9930 26076.0 -03469.1 -07.5780 26305.8
 10 08 2013  16 48  -20.9925 26075.6 -03469.3 -07.5785 26305.4
 10 08 2013  16 49  -20.9925 26076.3 -03469.9 -07.5797 26306.1
 10 08 2013  16 50  -20.9928 26077.2 -03470.6 -07.5809 26307.2
 10 08 2013  16 51  -20.9935 26077.7 -03471.0 -07.5816 26307.7
 10 08 2013  16 52  -20.9939 26077.4 -03470.9 -07.5814 26307.4
 10 08 2013  16 53  -20.9931 26076.6 -03470.6 -07.5810 26306.6
 10 08 2013  16 54  -20.9927 26075.8 -03470.4 -07.5808 26305.7
 10 08 2013  16 55  -20.9931 26076.2 -03470.8 -07.5815 26306.2
 10 08 2013  16 56  -20.9940 26076.6 -03471.1 -07.5822 26306.6
 10 08 2013  16 57  -20.9943 26076.5 -03471.1 -07.5822 26306.5
 10 08 2013  16 58  -20.9941 26075.8 -03470.9 -07.5819 26305.8
 10 08 2013  16 59  -20.9941 26074.7 -03470.5 -07.5815 26304.6
 10 08 2013  17 00  -20.9937 26073.7 -03470.3 -07.5812 26303.6
 10 08 2013  17 01  -20.9936 26073.3 -03470.4 -07.5816 26303.3
 10 08 2013  17 02  -20.9941 26073.4 -03470.7 -07.5823 26303.4
 10 08 2013  17 03  -20.9945 26073.6 -03471.0 -07.5829 26303.6
 10 08 2013  17 04  -20.9947 26073.8 -03471.3 -07.5834 26303.9
 10 08 2013  17 05  -20.9947 26073.7 -03471.5 -07.5838 26303.8
 10 08 2013  17 06  -20.9948 26073.5 -03471.5 -07.5840 26303.6
 10 08 2013  17 07  -20.9949 26073.2 -03471.6 -07.5842 26303.3
 10 08 2013  17 08  -20.9951 26073.3 -03471.8 -07.5845 26303.4
 10 08 2013  17 09  -20.9952 26073.1 -03471.8 -07.5847 26303.3
 10 08 2013  17 10  -20.9952 26073.0 -03471.9 -07.5849 26303.1
 10 08 2013  17 11  -20.9950 26072.7 -03471.9 -07.5851 26302.8
 10 08 2013  17 12  -20.9951 26072.1 -03471.9 -07.5851 26302.3
 10 08 2013  17 13  -20.9949 26071.5 -03471.7 -07.5850 26301.7
 10 08 2013  17 14  -20.9946 26071.2 -03471.8 -07.5852 26301.4
 10 08 2013  17 15  -20.9947 26071.1 -03472.0 -07.5857 26301.3
 10 08 2013  17 16  -20.9949 26071.1 -03472.2 -07.5861 26301.3
 10 08 2013  17 17  -20.9950 26071.2 -03472.3 -07.5864 26301.4
 10 08 2013  17 18  -20.9954 26071.3 -03472.5 -07.5867 26301.5
 10 08 2013  17 19  -20.9958 26071.4 -03472.7 -07.5870 26301.6
 10 08 2013  17 20  -20.9960 26071.3 -03472.7 -07.5871 26301.5
 10 08 2013  17 21  -20.9961 26071.0 -03472.7 -07.5871 26301.3
 10 08 2013  17 22  -20.9961 26070.6 -03472.6 -07.5870 26300.9
 10 08 2013  17 23  -20.9959 26070.0 -03472.5 -07.5870 26300.3
 10 08 2013  17 24  -20.9960 26069.5 -03472.4 -07.5869 26299.8
 10 08 2013  17 25  -20.9962 26069.2 -03472.4 -07.5871 26299.4
 10 08 2013  17 26  -20.9964 26068.8 -03472.5 -07.5873 26299.1
 10 08 2013  17 27  -20.9966 26068.5 -03472.5 -07.5875 26298.8
 10 08 2013  17 28  -20.9970 26068.1 -03472.6 -07.5877 26298.4
 10 08 2013  17 29  -20.9974 26067.9 -03472.6 -07.5880 26298.2
 10 08 2013  17 30  -20.9975 26067.5 -03472.7 -07.5882 26297.8
 10 08 2013  17 31  -20.9977 26067.2 -03472.8 -07.5884 26297.5
 10 08 2013  17 32  -20.9979 26066.8 -03472.8 -07.5886 26297.2
 10 08 2013  17 33  -20.9981 26066.5 -03472.9 -07.5889 26296.8
 10 08 2013  17 34  -20.9986 26066.2 -03473.0 -07.5891 26296.6
 10 08 2013  17 35  -20.9997 26066.2 -03473.2 -07.5896 26296.6
 10 08 2013  17 36  -21.0010 26066.4 -03473.4 -07.5900 26296.8
 10 08 2013  17 37  -21.0022 26066.6 -03473.5 -07.5903 26297.0
 10 08 2013  17 38  -21.0028 26066.4 -03473.5 -07.5903 26296.9
 10 08 2013  17 39  -21.0034 26066.5 -03473.6 -07.5904 26296.9
 10 08 2013  17 40  -21.0036 26066.4 -03473.7 -07.5907 26296.9
 10 08 2013  17 41  -21.0038 26066.3 -03473.8 -07.5909 26296.8
 10 08 2013  17 42  -21.0045 26066.5 -03474.0 -07.5912 26297.0
 10 08 2013  17 43  -21.0047 26066.1 -03473.8 -07.5911 26296.5
 10 08 2013  17 44  -21.0053 26065.9 -03473.8 -07.5911 26296.4
 10 08 2013  17 45  -21.0056 26065.7 -03473.7 -07.5909 26296.1
 10 08 2013  17 46  -21.0055 26065.2 -03473.6 -07.5908 26295.6
 10 08 2013  17 47  -21.0056 26064.8 -03473.5 -07.5907 26295.2
 10 08 2013  17 48  -21.0052 26064.2 -03473.3 -07.5905 26294.6
 10 08 2013  17 49  -21.0052 26063.8 -03473.4 -07.5907 26294.2
 10 08 2013  17 50  -21.0057 26063.3 -03473.3 -07.5908 26293.8
 10 08 2013  17 51  -21.0059 26062.9 -03473.3 -07.5908 26293.3
 10 08 2013  17 52  -21.0061 26062.7 -03473.4 -07.5911 26293.1
 10 08 2013  17 53  -21.0061 26062.3 -03473.4 -07.5913 26292.8
 10 08 2013  17 54  -21.0064 26062.0 -03473.6 -07.5916 26292.5
 10 08 2013  17 55  -21.0068 26062.0 -03473.7 -07.5920 26292.5
 10 08 2013  17 56  -21.0066 26061.6 -03473.8 -07.5922 26292.1
 10 08 2013  17 57  -21.0065 26061.2 -03473.8 -07.5923 26291.7
 10 08 2013  17 58  -21.0071 26061.2 -03474.0 -07.5928 26291.7
 10 08 2013  17 59  -21.0077 26061.0 -03474.0 -07.5930 26291.6
 10 08 2013  18 00  -21.0081 26060.5 -03474.0 -07.5930 26291.0
 10 08 2013  18 01  -21.0085 26060.0 -03473.8 -07.5929 26290.5
 10 08 2013  18 02  -21.0089 26059.2 -03473.7 -07.5927 26289.7
 10 08 2013  18 03  -21.0090 26058.7 -03473.6 -07.5928 26289.2
 10 08 2013  18 04  -21.0090 26058.3 -03473.7 -07.5930 26288.8
 10 08 2013  18 05  -21.0092 26057.9 -03473.8 -07.5934 26288.5
 10 08 2013  18 06  -21.0093 26057.7 -03473.9 -07.5937 26288.2
 10 08 2013  18 07  -21.0095 26057.6 -03474.1 -07.5942 26288.2
 10 08 2013  18 08  -21.0100 26058.0 -03474.6 -07.5950 26288.6
 10 08 2013  18 09  -21.0110 26058.4 -03474.9 -07.5956 26289.0
 10 08 2013  18 10  -21.0117 26058.4 -03474.9 -07.5957 26289.1
 10 08 2013  18 11  -21.0120 26058.2 -03474.8 -07.5955 26288.8
 10 08 2013  18 12  -21.0121 26057.7 -03474.7 -07.5953 26288.3
 10 08 2013  18 13  -21.0117 26056.8 -03474.4 -07.5949 26287.5
 10 08 2013  18 14  -21.0117 26056.0 -03474.3 -07.5950 26286.6
 10 08 2013  18 15  -21.0120 26055.7 -03474.4 -07.5953 26286.3
 10 08 2013  18 16  -21.0125 26055.6 -03474.6 -07.5957 26286.3
 10 08 2013  18 17  -21.0130 26055.8 -03474.8 -07.5962 26286.5
 10 08 2013  18 18  -21.0132 26056.0 -03475.0 -07.5965 26286.7
 10 08 2013  18 19  -21.0135 26056.1 -03475.2 -07.5968 26286.8
 10 08 2013  18 20  -21.0137 26055.9 -03475.2 -07.5969 26286.6
 10 08 2013  18 21  -21.0140 26055.4 -03475.1 -07.5968 26286.1
 10 08 2013  18 22  -21.0139 26054.4 -03474.8 -07.5964 26285.1
 10 08 2013  18 23  -21.0138 26053.5 -03474.5 -07.5962 26284.2
 10 08 2013  18 24  -21.0137 26052.9 -03474.5 -07.5964 26283.6
 10 08 2013  18 25  -21.0138 26052.6 -03474.7 -07.5969 26283.3
 10 08 2013  18 26  -21.0141 26052.7 -03475.1 -07.5976 26283.4
 10 08 2013  18 27  -21.0147 26052.8 -03475.3 -07.5981 26283.6
 10 08 2013  18 28  -21.0151 26052.7 -03475.4 -07.5984 26283.5
 10 08 2013  18 29  -21.0153 26052.5 -03475.5 -07.5987 26283.3
 10 08 2013  18 30  -21.0154 26052.3 -03475.6 -07.5989 26283.1
 10 08 2013  18 31  -21.0157 26052.0 -03475.6 -07.5990 26282.8
 10 08 2013  18 32  -21.0160 26051.6 -03475.6 -07.5991 26282.4
 10 08 2013  18 33  -21.0161 26051.1 -03475.6 -07.5992 26281.9
 10 08 2013  18 34  -21.0162 26050.6 -03475.5 -07.5992 26281.4
 10 08 2013  18 35  -21.0163 26050.3 -03475.6 -07.5995 26281.1
 10 08 2013  18 36  -21.0165 26049.9 -03475.7 -07.5997 26280.8
 10 08 2013  18 37  -21.0165 26049.7 -03475.8 -07.6001 26280.6
 10 08 2013  18 38  -21.0167 26049.9 -03476.1 -07.6007 26280.8
 10 08 2013  18 39  -21.0169 26050.2 -03476.4 -07.6013 26281.2
 10 08 2013  18 40  -21.0172 26050.6 -03476.7 -07.6018 26281.6
 10 08 2013  18 41  -21.0179 26050.9 -03476.9 -07.6021 26282.0
 10 08 2013  18 42  -21.0184 26051.1 -03477.0 -07.6022 26282.1
 10 08 2013  18 43  -21.0187 26050.9 -03476.8 -07.6020 26281.9
 10 08 2013  18 44  -21.0187 26050.5 -03476.6 -07.6016 26281.5
 10 08 2013  18 45  -21.0187 26049.9 -03476.4 -07.6013 26280.9
 10 08 2013  18 46  -21.0188 26049.6 -03476.4 -07.6013 26280.5
 10 08 2013  18 47  -21.0187 26049.3 -03476.4 -07.6014 26280.3
 10 08 2013  18 48  -21.0186 26049.3 -03476.5 -07.6016 26280.2
 10 08 2013  18 49  -21.0190 26049.4 -03476.7 -07.6020 26280.4
 10 08 2013  18 50  -21.0195 26049.6 -03476.8 -07.6023 26280.6
 10 08 2013  18 51  -21.0201 26049.8 -03476.9 -07.6024 26280.8
 10 08 2013  18 52  -21.0206 26049.7 -03476.9 -07.6024 26280.7
 10 08 2013  18 53  -21.0208 26049.5 -03476.7 -07.6021 26280.5
 10 08 2013  18 54  -21.0209 26049.2 -03476.7 -07.6020 26280.2
 10 08 2013  18 55  -21.0211 26049.1 -03476.6 -07.6020 26280.0
 10 08 2013  18 56  -21.0213 26049.0 -03476.7 -07.6022 26280.0
 10 08 2013  18 57  -21.0220 26048.9 -03476.7 -07.6021 26279.8
 10 08 2013  18 58  -21.0225 26048.2 -03476.4 -07.6017 26279.2
 10 08 2013  18 59  -21.0232 26047.3 -03475.9 -07.6010 26278.2
 10 08 2013  19 00  -21.0240 26046.5 -03475.5 -07.6004 26277.3
 10 08 2013  19 01  -21.0242 26045.5 -03475.1 -07.5997 26276.3
 10 08 2013  19 02  -21.0236 26044.1 -03474.6 -07.5991 26274.9
 10 08 2013  19 03  -21.0228 26042.9 -03474.3 -07.5988 26273.6
 10 08 2013  19 04  -21.0223 26041.9 -03474.3 -07.5990 26272.7
 10 08 2013  19 05  -21.0222 26041.6 -03474.5 -07.5995 26272.3
 10 08 2013  19 06  -21.0226 26041.7 -03474.8 -07.6002 26272.5
 10 08 2013  19 07  -21.0230 26041.8 -03475.0 -07.6006 26272.7
 10 08 2013  19 08  -21.0230 26041.8 -03475.1 -07.6008 26272.6
 10 08 2013  19 09  -21.0230 26041.7 -03475.1 -07.6009 26272.5
 10 08 2013  19 10  -21.0228 26041.5 -03475.2 -07.6011 26272.4
 10 08 2013  19 11  -21.0231 26041.5 -03475.3 -07.6014 26272.4
 10 08 2013  19 12  -21.0233 26041.4 -03475.4 -07.6015 26272.3
 10 08 2013  19 13  -21.0230 26041.4 -03475.4 -07.6016 26272.2
 10 08 2013  19 14  -21.0230 26041.1 -03475.4 -07.6016 26272.0
 10 08 2013  19 15  -21.0229 26040.8 -03475.3 -07.6016 26271.7
 10 08 2013  19 16  -21.0229 26040.7 -03475.4 -07.6017 26271.6
 10 08 2013  19 17  -21.0227 26040.6 -03475.5 -07.6020 26271.5
 10 08 2013  19 18  -21.0228 26040.7 -03475.7 -07.6024 26271.6
 10 08 2013  19 19  -21.0229 26040.8 -03475.8 -07.6026 26271.7
 10 08 2013  19 20  -21.0231 26040.9 -03475.9 -07.6029 26271.8
 10 08 2013  19 21  -21.0234 26040.9 -03476.0 -07.6030 26271.9
 10 08 2013  19 22  -21.0238 26041.0 -03476.0 -07.6031 26272.0
 10 08 2013  19 23  -21.0240 26040.9 -03476.0 -07.6030 26271.9
 10 08 2013  19 24  -21.0238 26040.6 -03475.9 -07.6028 26271.6
 10 08 2013  19 25  -21.0235 26040.3 -03475.8 -07.6027 26271.2
 10 08 2013  19 26  -21.0233 26040.3 -03475.9 -07.6030 26271.2
 10 08 2013  19 27  -21.0231 26040.5 -03476.1 -07.6034 26271.5
 10 08 2013  19 28  -21.0229 26040.9 -03476.4 -07.6039 26272.0
 10 08 2013  19 29  -21.0227 26041.3 -03476.6 -07.6043 26272.3
 10 08 2013  19 30  -21.0226 26041.6 -03476.8 -07.6045 26272.6
 10 08 2013  19 31  -21.0231 26042.1 -03477.0 -07.6048 26273.1
 10 08 2013  19 32  -21.0240 26042.5 -03477.0 -07.6048 26273.6
 10 08 2013  19 33  -21.0249 26042.6 -03476.9 -07.6045 26273.7
 10 08 2013  19 34  -21.0253 26042.2 -03476.6 -07.6039 26273.2
 10 08 2013  19 35  -21.0253 26041.4 -03476.1 -07.6031 26272.4
 10 08 2013  19 36  -21.0247 26040.5 -03475.7 -07.6025 26271.4
 10 08 2013  19 37  -21.0240 26039.9 -03475.6 -07.6024 26270.8
 10 08 2013  19 38  -21.0238 26040.0 -03475.8 -07.6029 26271.0
 10 08 2013  19 39  -21.0239 26040.5 -03476.1 -07.6035 26271.4
 10 08 2013  19 40  -21.0242 26040.9 -03476.4 -07.6039 26271.9
 10 08 2013  19 41  -21.0246 26041.4 -03476.6 -07.6041 26272.4
 10 08 2013  19 42  -21.0248 26041.4 -03476.5 -07.6039 26272.4
 10 08 2013  19 43  -21.0250 26041.3 -03476.3 -07.6036 26272.3
 10 08 2013  19 44  -21.0248 26041.0 -03476.1 -07.6033 26271.9
 10 08 2013  19 45  -21.0246 26040.6 -03476.0 -07.6031 26271.6
 10 08 2013  19 46  -21.0245 26040.6 -03476.0 -07.6030 26271.5
 10 08 2013  19 47  -21.0245 26040.6 -03476.0 -07.6031 26271.6
 10 08 2013  19 48  -21.0244 26040.8 -03476.1 -07.6032 26271.8
 10 08 2013  19 49  -21.0244 26041.2 -03476.2 -07.6034 26272.2
 10 08 2013  19 50  -21.0244 26041.5 -03476.3 -07.6035 26272.5
 10 08 2013  19 51  -21.0243 26041.8 -03476.3 -07.6034 26272.8
 10 08 2013  19 52  -21.0243 26041.9 -03476.3 -07.6033 26272.9
 10 08 2013  19 53  -21.0244 26041.8 -03476.2 -07.6031 26272.8
 10 08 2013  19 54  -21.0245 26041.8 -03476.0 -07.6029 26272.7
 10 08 2013  19 55  -21.0246 26041.6 -03475.9 -07.6025 26272.6
 10 08 2013  19 56  -21.0243 26041.4 -03475.7 -07.6022 26272.4
 10 08 2013  19 57  -21.0242 26041.2 -03475.6 -07.6020 26272.2
 10 08 2013  19 58  -21.0243 26041.2 -03475.5 -07.6019 26272.1
 10 08 2013  19 59  -21.0244 26041.1 -03475.5 -07.6018 26272.0
 10 08 2013  20 00  -21.0243 26040.8 -03475.3 -07.6014 26271.7
 10 08 2013  20 01  -21.0242 26040.5 -03475.1 -07.6011 26271.3
 10 08 2013  20 02  -21.0240 26040.5 -03475.1 -07.6012 26271.4
 10 08 2013  20 03  -21.0241 26040.7 -03475.2 -07.6013 26271.6
 10 08 2013  20 04  -21.0244 26040.9 -03475.2 -07.6014 26271.7
 10 08 2013  20 05  -21.0249 26040.8 -03475.1 -07.6012 26271.6
 10 08 2013  20 06  -21.0255 26040.4 -03474.9 -07.6008 26271.3
 10 08 2013  20 07  -21.0254 26039.5 -03474.4 -07.6000 26270.3
 10 08 2013  20 08  -21.0251 26038.6 -03474.1 -07.5995 26269.4
 10 08 2013  20 09  -21.0248 26038.2 -03474.0 -07.5994 26269.0
 10 08 2013  20 10  -21.0246 26038.2 -03474.1 -07.5998 26269.0
 10 08 2013  20 11  -21.0244 26038.5 -03474.3 -07.6001 26269.3
 10 08 2013  20 12  -21.0243 26038.8 -03474.5 -07.6004 26269.6
 10 08 2013  20 13  -21.0243 26039.0 -03474.6 -07.6007 26269.8
 10 08 2013  20 14  -21.0243 26039.0 -03474.7 -07.6006 26269.9
 10 08 2013  20 15  -21.0243 26039.1 -03474.7 -07.6007 26269.9
 10 08 2013  20 16  -21.0245 26039.2 -03474.8 -07.6008 26270.1
 10 08 2013  20 17  -21.0244 26039.2 -03474.7 -07.6007 26270.0
 10 08 2013  20 18  -21.0244 26039.0 -03474.5 -07.6004 26269.8
 10 08 2013  20 19  -21.0242 26038.5 -03474.3 -07.6000 26269.3
 10 08 2013  20 20  -21.0241 26038.2 -03474.2 -07.5999 26268.9
 10 08 2013  20 21  -21.0243 26038.0 -03474.1 -07.5998 26268.8
 10 08 2013  20 22  -21.0245 26038.0 -03474.1 -07.5998 26268.8
 10 08 2013  20 23  -21.0247 26037.9 -03474.1 -07.5997 26268.7
 10 08 2013  20 24  -21.0248 26037.6 -03474.0 -07.5996 26268.4
 10 08 2013  20 25  -21.0247 26037.3 -03473.8 -07.5993 26268.0
 10 08 2013  20 26  -21.0243 26036.8 -03473.6 -07.5990 26267.4
 10 08 2013  20 27  -21.0238 26036.4 -03473.5 -07.5990 26267.1
 10 08 2013  20 28  -21.0235 26036.3 -03473.6 -07.5991 26267.0
 10 08 2013  20 29  -21.0231 26036.3 -03473.7 -07.5993 26267.0
 10 08 2013  20 30  -21.0229 26036.4 -03473.8 -07.5995 26267.1
 10 08 2013  20 31  -21.0227 26036.5 -03473.9 -07.5998 26267.2
 10 08 2013  20 32  -21.0226 26036.6 -03474.0 -07.6000 26267.3
 10 08 2013  20 33  -21.0226 26036.7 -03474.2 -07.6003 26267.5
 10 08 2013  20 34  -21.0226 26036.7 -03474.2 -07.6004 26267.5
 10 08 2013  20 35  -21.0224 26036.6 -03474.1 -07.6002 26267.4
 10 08 2013  20 36  -21.0223 26036.5 -03474.0 -07.6001 26267.3
 10 08 2013  20 37  -21.0221 26036.4 -03474.0 -07.6000 26267.2
 10 08 2013  20 38  -21.0217 26036.4 -03474.0 -07.5999 26267.1
 10 08 2013  20 39  -21.0214 26036.4 -03474.0 -07.6000 26267.2
 10 08 2013  20 40  -21.0210 26036.6 -03474.2 -07.6003 26267.3
 10 08 2013  20 41  -21.0207 26036.8 -03474.3 -07.6006 26267.6
 10 08 2013  20 42  -21.0203 26037.0 -03474.4 -07.6008 26267.8
 10 08 2013  20 43  -21.0199 26037.1 -03474.5 -07.6009 26267.9
 10 08 2013  20 44  -21.0197 26037.1 -03474.5 -07.6009 26268.0
 10 08 2013  20 45  -21.0193 26037.0 -03474.5 -07.6009 26267.9
 10 08 2013  20 46  -21.0191 26037.0 -03474.5 -07.6009 26267.8
 10 08 2013  20 47  -21.0188 26037.1 -03474.6 -07.6010 26267.9
 10 08 2013  20 48  -21.0185 26037.2 -03474.7 -07.6012 26268.1
 10 08 2013  20 49  -21.0184 26037.5 -03474.8 -07.6015 26268.4
 10 08 2013  20 50  -21.0182 26037.8 -03475.0 -07.6017 26268.6
 10 08 2013  20 51  -21.0181 26037.9 -03475.1 -07.6019 26268.8
 10 08 2013  20 52  -21.0180 26038.1 -03475.2 -07.6020 26269.0
 10 08 2013  20 53  -21.0180 26038.2 -03475.2 -07.6020 26269.1
 10 08 2013  20 54  -21.0178 26038.3 -03475.2 -07.6019 26269.1
 10 08 2013  20 55  -21.0178 26038.3 -03475.1 -07.6019 26269.2
 10 08 2013  20 56  -21.0178 26038.4 -03475.1 -07.6018 26269.3
 10 08 2013  20 57  -21.0180 26038.3 -03475.0 -07.6016 26269.2
 10 08 2013  20 58  -21.0180 26038.1 -03474.9 -07.6014 26268.9
 10 08 2013  20 59  -21.0181 26037.7 -03474.7 -07.6011 26268.5
 10 08 2013  21 00  -21.0179 26037.4 -03474.5 -07.6008 26268.2
 10 08 2013  21 01  -21.0178 26037.5 -03474.5 -07.6008 26268.3
 10 08 2013  21 02  -21.0176 26037.5 -03474.5 -07.6008 26268.3
 10 08 2013  21 03  -21.0175 26037.8 -03474.6 -07.6010 26268.6
 10 08 2013  21 04  -21.0175 26038.2 -03474.8 -07.6013 26269.0
 10 08 2013  21 05  -21.0176 26038.6 -03475.1 -07.6016 26269.5
 10 08 2013  21 06  -21.0178 26039.0 -03475.2 -07.6019 26269.9
 10 08 2013  21 07  -21.0179 26039.2 -03475.3 -07.6019 26270.1
 10 08 2013  21 08  -21.0179 26039.2 -03475.2 -07.6017 26270.0
 10 08 2013  21 09  -21.0181 26039.0 -03475.0 -07.6014 26269.9
 10 08 2013  21 10  -21.0181 26038.7 -03474.8 -07.6010 26269.5
 10 08 2013  21 11  -21.0180 26038.5 -03474.6 -07.6007 26269.3
 10 08 2013  21 12  -21.0178 26038.3 -03474.5 -07.6005 26269.1
 10 08 2013  21 13  -21.0177 26038.3 -03474.5 -07.6005 26269.1
 10 08 2013  21 14  -21.0175 26038.3 -03474.5 -07.6005 26269.1
 10 08 2013  21 15  -21.0174 26038.2 -03474.5 -07.6005 26269.0
 10 08 2013  21 16  -21.0172 26038.4 -03474.6 -07.6006 26269.2
 10 08 2013  21 17  -21.0172 26038.6 -03474.6 -07.6007 26269.4
 10 08 2013  21 18  -21.0171 26038.7 -03474.7 -07.6008 26269.5
 10 08 2013  21 19  -21.0169 26038.8 -03474.7 -07.6009 26269.6
 10 08 2013  21 20  -21.0168 26039.0 -03474.9 -07.6011 26269.9
 10 08 2013  21 21  -21.0165 26039.5 -03475.0 -07.6014 26270.4
 10 08 2013  21 22  -21.0162 26039.9 -03475.2 -07.6016 26270.8
 10 08 2013  21 23  -21.0160 26040.1 -03475.3 -07.6017 26271.0
 10 08 2013  21 24  -21.0157 26040.2 -03475.2 -07.6016 26271.1
 10 08 2013  21 25  -21.0156 26040.3 -03475.2 -07.6016 26271.2
 10 08 2013  21 26  -21.0154 26040.4 -03475.3 -07.6016 26271.3
 10 08 2013  21 27  -21.0153 26040.5 -03475.3 -07.6016 26271.4
 10 08 2013  21 28  -21.0153 26040.6 -03475.3 -07.6015 26271.5
 10 08 2013  21 29  -21.0152 26040.7 -03475.3 -07.6016 26271.6
 10 08 2013  21 30  -21.0151 26040.8 -03475.3 -07.6015 26271.7
 10 08 2013  21 31  -21.0150 26040.9 -03475.3 -07.6015 26271.7
 10 08 2013  21 32  -21.0151 26041.0 -03475.3 -07.6015 26271.8
 10 08 2013  21 33  -21.0153 26041.1 -03475.3 -07.6015 26271.9
 10 08 2013  21 34  -21.0154 26041.1 -03475.3 -07.6015 26272.0
 10 08 2013  21 35  -21.0156 26041.1 -03475.2 -07.6013 26272.0
 10 08 2013  21 36  -21.0158 26041.1 -03475.2 -07.6012 26271.9
 10 08 2013  21 37  -21.0158 26041.0 -03475.1 -07.6011 26271.9
 10 08 2013  21 38  -21.0159 26041.1 -03475.1 -07.6010 26272.0
 10 08 2013  21 39  -21.0160 26041.3 -03475.1 -07.6011 26272.2
 10 08 2013  21 40  -21.0158 26041.5 -03475.2 -07.6010 26272.4
 10 08 2013  21 41  -21.0158 26041.6 -03475.2 -07.6010 26272.5
 10 08 2013  21 42  -21.0159 26041.6 -03475.1 -07.6009 26272.4
 10 08 2013  21 43  -21.0161 26041.5 -03475.0 -07.6007 26272.3
 10 08 2013  21 44  -21.0164 26041.5 -03475.0 -07.6006 26272.3
 10 08 2013  21 45  -21.0167 26041.6 -03474.9 -07.6005 26272.4
 10 08 2013  21 46  -21.0169 26041.7 -03474.9 -07.6005 26272.5
 10 08 2013  21 47  -21.0171 26041.8 -03474.9 -07.6004 26272.6
 10 08 2013  21 48  -21.0173 26041.8 -03474.9 -07.6004 26272.6
 10 08 2013  21 49  -21.0176 26041.8 -03474.8 -07.6002 26272.6
 10 08 2013  21 50  -21.0177 26041.8 -03474.8 -07.6001 26272.6
 10 08 2013  21 51  -21.0179 26041.8 -03474.7 -07.5999 26272.6
 10 08 2013  21 52  -21.0181 26041.8 -03474.6 -07.5998 26272.6
 10 08 2013  21 53  -21.0182 26041.8 -03474.6 -07.5997 26272.6
 10 08 2013  21 54  -21.0181 26041.8 -03474.5 -07.5996 26272.6
 10 08 2013  21 55  -21.0180 26042.0 -03474.6 -07.5996 26272.8
 10 08 2013  21 56  -21.0177 26042.3 -03474.6 -07.5997 26273.1
 10 08 2013  21 57  -21.0177 26042.4 -03474.6 -07.5996 26273.2
 10 08 2013  21 58  -21.0179 26042.3 -03474.6 -07.5995 26273.1
 10 08 2013  21 59  -21.0182 26042.1 -03474.4 -07.5992 26272.9
 10 08 2013  22 00  -21.0185 26042.0 -03474.3 -07.5990 26272.7
 10 08 2013  22 01  -21.0188 26041.9 -03474.2 -07.5988 26272.6
 10 08 2013  22 02  -21.0190 26041.9 -03474.2 -07.5988 26272.6
 10 08 2013  22 03  -21.0190 26042.0 -03474.2 -07.5988 26272.7
 10 08 2013  22 04  -21.0189 26042.2 -03474.2 -07.5988 26272.9
 10 08 2013  22 05  -21.0188 26042.3 -03474.3 -07.5989 26273.0
 10 08 2013  22 06  -21.0189 26042.3 -03474.2 -07.5987 26273.1
 10 08 2013  22 07  -21.0190 26042.3 -03474.1 -07.5986 26273.0
 10 08 2013  22 08  -21.0192 26042.0 -03474.0 -07.5983 26272.7
 10 08 2013  22 09  -21.0194 26042.0 -03473.9 -07.5982 26272.7
 10 08 2013  22 10  -21.0194 26042.2 -03474.0 -07.5984 26272.9
 10 08 2013  22 11  -21.0192 26042.4 -03474.1 -07.5984 26273.1
 10 08 2013  22 12  -21.0191 26042.5 -03474.1 -07.5984 26273.2
 10 08 2013  22 13  -21.0190 26042.5 -03474.0 -07.5982 26273.2
 10 08 2013  22 14  -21.0192 26042.3 -03473.9 -07.5981 26273.0
 10 08 2013  22 15  -21.0195 26042.3 -03473.8 -07.5979 26273.0
 10 08 2013  22 16  -21.0196 26042.2 -03473.8 -07.5978 26272.9
 10 08 2013  22 17  -21.0196 26042.2 -03473.7 -07.5977 26272.9
 10 08 2013  22 18  -21.0198 26042.1 -03473.6 -07.5976 26272.8
 10 08 2013  22 19  -21.0200 26042.0 -03473.6 -07.5975 26272.6
 10 08 2013  22 20  -21.0202 26041.8 -03473.5 -07.5973 26272.4
 10 08 2013  22 21  -21.0204 26041.7 -03473.4 -07.5972 26272.3
 10 08 2013  22 22  -21.0204 26041.7 -03473.4 -07.5971 26272.3
 10 08 2013  22 23  -21.0205 26041.8 -03473.4 -07.5971 26272.4
 10 08 2013  22 24  -21.0205 26041.8 -03473.4 -07.5971 26272.4
 10 08 2013  22 25  -21.0204 26041.8 -03473.4 -07.5971 26272.4
 10 08 2013  22 26  -21.0202 26041.9 -03473.4 -07.5972 26272.5
 10 08 2013  22 27  -21.0199 26042.1 -03473.5 -07.5973 26272.7
 10 08 2013  22 28  -21.0194 26042.2 -03473.6 -07.5973 26272.9
 10 08 2013  22 29  -21.0191 26042.4 -03473.7 -07.5975 26273.1
 10 08 2013  22 30  -21.0188 26042.5 -03473.7 -07.5976 26273.2
 10 08 2013  22 31  -21.0187 26042.6 -03473.7 -07.5976 26273.2
 10 08 2013  22 32  -21.0188 26042.7 -03473.8 -07.5976 26273.3
 10 08 2013  22 33  -21.0190 26042.7 -03473.8 -07.5977 26273.4
 10 08 2013  22 34  -21.0196 26042.6 -03473.8 -07.5977 26273.3
 10 08 2013  22 35  -21.0200 26042.6 -03473.7 -07.5976 26273.2
 10 08 2013  22 36  -21.0203 26042.4 -03473.6 -07.5974 26273.1
 10 08 2013  22 37  -21.0206 26042.0 -03473.4 -07.5971 26272.6
 10 08 2013  22 38  -21.0208 26041.7 -03473.2 -07.5968 26272.3
 10 08 2013  22 39  -21.0209 26041.6 -03473.1 -07.5966 26272.2
 10 08 2013  22 40  -21.0207 26041.7 -03473.1 -07.5966 26272.2
 10 08 2013  22 41  -21.0202 26041.8 -03473.1 -07.5966 26272.3
 10 08 2013  22 42  -21.0198 26041.8 -03473.1 -07.5965 26272.3
 10 08 2013  22 43  -21.0194 26041.6 -03473.0 -07.5964 26272.2
 10 08 2013  22 44  -21.0193 26041.5 -03473.0 -07.5963 26272.1
 10 08 2013  22 45  -21.0193 26041.4 -03472.9 -07.5962 26271.9
 10 08 2013  22 46  -21.0195 26041.4 -03473.0 -07.5963 26271.9
 10 08 2013  22 47  -21.0195 26041.6 -03473.1 -07.5966 26272.2
 10 08 2013  22 48  -21.0192 26041.9 -03473.3 -07.5969 26272.5
 10 08 2013  22 49  -21.0186 26042.4 -03473.6 -07.5973 26273.0
 10 08 2013  22 50  -21.0179 26043.0 -03473.8 -07.5977 26273.6
 10 08 2013  22 51  -21.0173 26043.4 -03474.0 -07.5980 26274.1
 10 08 2013  22 52  -21.0172 26043.6 -03474.1 -07.5980 26274.3
 10 08 2013  22 53  -21.0176 26043.3 -03473.9 -07.5978 26274.0
 10 08 2013  22 54  -21.0183 26042.9 -03473.8 -07.5976 26273.6
 10 08 2013  22 55  -21.0189 26042.7 -03473.7 -07.5975 26273.4
 10 08 2013  22 56  -21.0190 26042.7 -03473.7 -07.5975 26273.4
 10 08 2013  22 57  -21.0189 26042.9 -03473.7 -07.5975 26273.5
 10 08 2013  22 58  -21.0187 26042.9 -03473.7 -07.5975 26273.6
 10 08 2013  22 59  -21.0187 26042.7 -03473.6 -07.5973 26273.4
 10 08 2013  23 00  -21.0190 26042.5 -03473.5 -07.5971 26273.1
 10 08 2013  23 01  -21.0195 26042.3 -03473.4 -07.5970 26272.9
 10 08 2013  23 02  -21.0198 26042.3 -03473.4 -07.5971 26272.9
 10 08 2013  23 03  -21.0198 26042.4 -03473.5 -07.5972 26273.1
 10 08 2013  23 04  -21.0196 26042.6 -03473.6 -07.5973 26273.2
 10 08 2013  23 05  -21.0195 26042.6 -03473.6 -07.5972 26273.2
 10 08 2013  23 06  -21.0195 26042.5 -03473.5 -07.5972 26273.2
 10 08 2013  23 07  -21.0195 26042.4 -03473.4 -07.5970 26273.0
 10 08 2013  23 08  -21.0195 26042.3 -03473.3 -07.5968 26272.9
 10 08 2013  23 09  -21.0195 26042.2 -03473.3 -07.5967 26272.8
 10 08 2013  23 10  -21.0194 26042.2 -03473.3 -07.5967 26272.8
 10 08 2013  23 11  -21.0194 26042.2 -03473.2 -07.5967 26272.8
 10 08 2013  23 12  -21.0196 26042.2 -03473.2 -07.5967 26272.7
 10 08 2013  23 13  -21.0196 26042.2 -03473.3 -07.5967 26272.8
 10 08 2013  23 14  -21.0195 26042.5 -03473.4 -07.5968 26273.1
 10 08 2013  23 15  -21.0195 26042.8 -03473.5 -07.5970 26273.5
 10 08 2013  23 16  -21.0196 26043.0 -03473.6 -07.5971 26273.7
 10 08 2013  23 17  -21.0198 26042.9 -03473.5 -07.5971 26273.6
 10 08 2013  23 18  -21.0204 26042.8 -03473.4 -07.5969 26273.4
 10 08 2013  23 19  -21.0208 26042.8 -03473.4 -07.5968 26273.4
 10 08 2013  23 20  -21.0209 26042.7 -03473.3 -07.5967 26273.3
 10 08 2013  23 21  -21.0210 26042.7 -03473.2 -07.5966 26273.2
 10 08 2013  23 22  -21.0211 26042.7 -03473.2 -07.5965 26273.3
 10 08 2013  23 23  -21.0211 26042.7 -03473.2 -07.5964 26273.3
 10 08 2013  23 24  -21.0212 26042.5 -03473.1 -07.5963 26273.1
 10 08 2013  23 25  -21.0214 26042.2 -03472.9 -07.5960 26272.7
 10 08 2013  23 26  -21.0217 26041.8 -03472.7 -07.5957 26272.4
 10 08 2013  23 27  -21.0215 26041.7 -03472.7 -07.5955 26272.3
 10 08 2013  23 28  -21.0214 26041.7 -03472.7 -07.5955 26272.2
 10 08 2013  23 29  -21.0215 26041.6 -03472.7 -07.5956 26272.1
 10 08 2013  23 30  -21.0211 26042.0 -03472.8 -07.5958 26272.5
 10 08 2013  23 31  -21.0211 26041.9 -03472.8 -07.5959 26272.5
 10 08 2013  23 32  -21.0212 26041.7 -03472.8 -07.5958 26272.3
 10 08 2013  23 33  -21.0214 26041.5 -03472.7 -07.5956 26272.0
 10 08 2013  23 34  -21.0213 26041.5 -03472.7 -07.5956 26272.0
 10 08 2013  23 35  -21.0210 26041.7 -03472.7 -07.5957 26272.2
 10 08 2013  23 36  -21.0208 26041.7 -03472.8 -07.5958 26272.2
 10 08 2013  23 37  -21.0208 26041.5 -03472.7 -07.5957 26272.0
 10 08 2013  23 38  -21.0207 26041.3 -03472.6 -07.5956 26271.8
 10 08 2013  23 39  -21.0206 26041.3 -03472.6 -07.5956 26271.8
 10 08 2013  23 40  -21.0207 26041.2 -03472.6 -07.5956 26271.7
 10 08 2013  23 41  -21.0206 26041.2 -03472.6 -07.5956 26271.7
 10 08 2013  23 42  -21.0205 26041.1 -03472.6 -07.5956 26271.6
 10 08 2013  23 43  -21.0206 26041.1 -03472.6 -07.5957 26271.6
 10 08 2013  23 44  -21.0207 26041.0 -03472.6 -07.5957 26271.5
 10 08 2013  23 45  -21.0208 26040.9 -03472.6 -07.5957 26271.4
 10 08 2013  23 46  -21.0209 26040.8 -03472.6 -07.5957 26271.3
 10 08 2013  23 47  -21.0208 26040.6 -03472.5 -07.5955 26271.1
 10 08 2013  23 48  -21.0208 26040.6 -03472.5 -07.5955 26271.1
 10 08 2013  23 49  -21.0206 26040.7 -03472.5 -07.5956 26271.2
 10 08 2013  23 50  -21.0204 26040.6 -03472.6 -07.5956 26271.2
 10 08 2013  23 51  -21.0203 26040.5 -03472.5 -07.5955 26271.0
 10 08 2013  23 52  -21.0204 26040.5 -03472.5 -07.5955 26271.0
 10 08 2013  23 53  -21.0206 26040.2 -03472.4 -07.5954 26270.7
 10 08 2013  23 54  -21.0209 26039.8 -03472.3 -07.5953 26270.3
 10 08 2013  23 55  -21.0213 26039.3 -03472.1 -07.5950 26269.7
 10 08 2013  23 56  -21.0217 26038.7 -03471.8 -07.5946 26269.1
 10 08 2013  23 57  -21.0220 26038.3 -03471.7 -07.5944 26268.7
 10 08 2013  23 58  -21.0219 26038.3 -03471.6 -07.5943 26268.7
