SAO LUIS EMBRACE-03 <283> 1 Min. Reported data

 DD MM YYYY  HH MM   D(Deg)  H(nT)   Z(nT)   I(Deg)   F(nT)

 10 10 2013  00 00  -21.0278 26000.3 -03489.6 -07.6442 26233.5
 10 10 2013  00 01  -21.0283 26000.3 -03489.7 -07.6445 26233.4
 10 10 2013  00 02  -21.0284 26000.2 -03489.8 -07.6448 26233.4
 10 10 2013  00 03  -21.0287 25999.9 -03489.8 -07.6447 26233.0
 10 10 2013  00 04  -21.0290 26000.2 -03490.0 -07.6451 26233.4
 10 10 2013  00 05  -21.0298 26000.9 -03490.5 -07.6460 26234.2
 10 10 2013  00 06  -21.0302 26001.1 -03490.7 -07.6463 26234.3
 10 10 2013  00 07  -21.0306 26001.5 -03490.9 -07.6467 26234.8
 10 10 2013  00 08  -21.0307 26001.7 -03491.1 -07.6471 26235.0
 10 10 2013  00 09  -21.0301 26001.2 -03490.8 -07.6466 26234.5
 10 10 2013  00 10  -21.0294 26000.3 -03490.4 -07.6459 26233.6
 10 10 2013  00 11  -21.0287 25998.9 -03489.6 -07.6447 26232.0
 10 10 2013  00 12  -21.0286 25997.8 -03489.1 -07.6438 26230.8
 10 10 2013  00 13  -21.0290 25997.2 -03488.9 -07.6436 26230.2
 10 10 2013  00 14  -21.0300 25996.8 -03489.0 -07.6439 26229.9
 10 10 2013  00 15  -21.0307 25996.6 -03489.0 -07.6441 26229.6
 10 10 2013  00 16  -21.0307 25996.6 -03489.2 -07.6444 26229.8
 10 10 2013  00 17  -21.0304 25996.7 -03489.4 -07.6447 26229.8
 10 10 2013  00 18  -21.0300 25996.7 -03489.5 -07.6449 26229.8
 10 10 2013  00 19  -21.0299 25996.4 -03489.5 -07.6451 26229.6
 10 10 2013  00 20  -21.0302 25995.8 -03489.3 -07.6449 26229.0
 10 10 2013  00 21  -21.0306 25995.2 -03489.1 -07.6447 26228.3
 10 10 2013  00 22  -21.0309 25994.7 -03489.0 -07.6445 26227.8
 10 10 2013  00 23  -21.0311 25994.4 -03489.0 -07.6445 26227.5
 10 10 2013  00 24  -21.0310 25994.4 -03489.0 -07.6447 26227.5
 10 10 2013  00 25  -21.0306 25994.5 -03489.2 -07.6450 26227.6
 10 10 2013  00 26  -21.0304 25994.7 -03489.4 -07.6455 26227.8
 10 10 2013  00 27  -21.0301 25994.8 -03489.6 -07.6458 26227.9
 10 10 2013  00 28  -21.0298 25994.7 -03489.7 -07.6460 26227.8
 10 10 2013  00 29  -21.0297 25994.1 -03489.5 -07.6458 26227.3
 10 10 2013  00 30  -21.0296 25992.6 -03488.9 -07.6449 26225.7
 10 10 2013  00 31  -21.0292 25990.8 -03488.0 -07.6435 26223.8
 10 10 2013  00 32  -21.0292 25989.6 -03487.5 -07.6427 26222.5
 10 10 2013  00 33  -21.0297 25989.0 -03487.4 -07.6427 26222.0
 10 10 2013  00 34  -21.0302 25988.9 -03487.6 -07.6431 26221.8
 10 10 2013  00 35  -21.0301 25989.0 -03487.8 -07.6436 26222.0
 10 10 2013  00 36  -21.0301 25989.4 -03488.2 -07.6443 26222.4
 10 10 2013  00 37  -21.0303 25989.8 -03488.6 -07.6451 26222.9
 10 10 2013  00 38  -21.0303 25989.8 -03488.8 -07.6455 26222.9
 10 10 2013  00 39  -21.0297 25990.1 -03489.0 -07.6458 26223.2
 10 10 2013  00 40  -21.0292 25990.6 -03489.3 -07.6464 26223.7
 10 10 2013  00 41  -21.0291 25990.9 -03489.6 -07.6470 26224.1
 10 10 2013  00 42  -21.0290 25991.2 -03489.8 -07.6473 26224.4
 10 10 2013  00 43  -21.0292 25991.2 -03490.0 -07.6477 26224.5
 10 10 2013  00 44  -21.0290 25991.0 -03489.9 -07.6476 26224.3
 10 10 2013  00 45  -21.0286 25990.6 -03489.8 -07.6473 26223.9
 10 10 2013  00 46  -21.0277 25990.5 -03489.7 -07.6472 26223.7
 10 10 2013  00 47  -21.0272 25990.4 -03489.7 -07.6473 26223.6
 10 10 2013  00 48  -21.0270 25990.5 -03489.8 -07.6475 26223.7
 10 10 2013  00 49  -21.0264 25990.3 -03489.8 -07.6476 26223.5
 10 10 2013  00 50  -21.0261 25990.0 -03489.8 -07.6475 26223.2
 10 10 2013  00 51  -21.0265 25989.4 -03489.6 -07.6473 26222.6
 10 10 2013  00 52  -21.0274 25988.9 -03489.5 -07.6472 26222.1
 10 10 2013  00 53  -21.0279 25988.6 -03489.4 -07.6472 26221.8
 10 10 2013  00 54  -21.0280 25988.5 -03489.4 -07.6471 26221.7
 10 10 2013  00 55  -21.0285 25988.5 -03489.5 -07.6474 26221.7
 10 10 2013  00 56  -21.0289 25988.4 -03489.6 -07.6477 26221.7
 10 10 2013  00 57  -21.0283 25988.4 -03489.6 -07.6477 26221.7
 10 10 2013  00 58  -21.0278 25988.4 -03489.7 -07.6478 26221.7
 10 10 2013  00 59  -21.0279 25988.4 -03489.7 -07.6479 26221.6
 10 10 2013  01 00  -21.0280 25988.1 -03489.7 -07.6479 26221.3
 10 10 2013  01 01  -21.0281 25988.0 -03489.7 -07.6479 26221.2
 10 10 2013  01 02  -21.0285 25988.0 -03489.7 -07.6481 26221.2
 10 10 2013  01 03  -21.0291 25987.7 -03489.7 -07.6481 26220.9
 10 10 2013  01 04  -21.0296 25987.1 -03489.4 -07.6477 26220.3
 10 10 2013  01 05  -21.0297 25986.7 -03489.3 -07.6474 26219.9
 10 10 2013  01 06  -21.0299 25986.6 -03489.3 -07.6474 26219.8
 10 10 2013  01 07  -21.0300 25986.4 -03489.2 -07.6474 26219.6
 10 10 2013  01 08  -21.0301 25986.1 -03489.1 -07.6472 26219.2
 10 10 2013  01 09  -21.0297 25986.3 -03489.2 -07.6473 26219.5
 10 10 2013  01 10  -21.0296 25986.7 -03489.5 -07.6478 26219.9
 10 10 2013  01 11  -21.0295 25986.7 -03489.6 -07.6480 26220.0
 10 10 2013  01 12  -21.0295 25986.5 -03489.5 -07.6480 26219.7
 10 10 2013  01 13  -21.0298 25985.6 -03489.2 -07.6475 26218.8
 10 10 2013  01 14  -21.0300 25984.1 -03488.5 -07.6464 26217.2
 10 10 2013  01 15  -21.0302 25982.7 -03487.7 -07.6453 26215.7
 10 10 2013  01 16  -21.0304 25981.5 -03487.2 -07.6445 26214.5
 10 10 2013  01 17  -21.0308 25980.7 -03486.9 -07.6441 26213.6
 10 10 2013  01 18  -21.0316 25980.2 -03486.8 -07.6440 26213.1
 10 10 2013  01 19  -21.0324 25980.1 -03487.0 -07.6444 26213.1
 10 10 2013  01 20  -21.0321 25980.1 -03487.2 -07.6448 26213.1
 10 10 2013  01 21  -21.0317 25980.1 -03487.3 -07.6450 26213.1
 10 10 2013  01 22  -21.0314 25980.2 -03487.5 -07.6454 26213.2
 10 10 2013  01 23  -21.0314 25980.3 -03487.6 -07.6457 26213.3
 10 10 2013  01 24  -21.0316 25980.5 -03487.9 -07.6463 26213.6
 10 10 2013  01 25  -21.0313 25980.5 -03488.1 -07.6466 26213.6
 10 10 2013  01 26  -21.0313 25980.4 -03488.1 -07.6467 26213.5
 10 10 2013  01 27  -21.0311 25980.4 -03488.2 -07.6469 26213.5
 10 10 2013  01 28  -21.0309 25980.6 -03488.3 -07.6471 26213.7
 10 10 2013  01 29  -21.0304 25980.4 -03488.3 -07.6472 26213.5
 10 10 2013  01 30  -21.0295 25980.1 -03488.2 -07.6470 26213.3
 10 10 2013  01 31  -21.0289 25980.0 -03488.2 -07.6471 26213.2
 10 10 2013  01 32  -21.0284 25980.0 -03488.3 -07.6472 26213.1
 10 10 2013  01 33  -21.0280 25980.2 -03488.5 -07.6476 26213.4
 10 10 2013  01 34  -21.0277 25980.3 -03488.7 -07.6480 26213.5
 10 10 2013  01 35  -21.0273 25980.5 -03488.9 -07.6484 26213.8
 10 10 2013  01 36  -21.0270 25980.9 -03489.2 -07.6489 26214.1
 10 10 2013  01 37  -21.0269 25981.4 -03489.5 -07.6496 26214.7
 10 10 2013  01 38  -21.0266 25981.9 -03489.9 -07.6501 26215.2
 10 10 2013  01 39  -21.0265 25982.3 -03490.2 -07.6506 26215.7
 10 10 2013  01 40  -21.0266 25982.8 -03490.5 -07.6511 26216.2
 10 10 2013  01 41  -21.0264 25983.2 -03490.7 -07.6516 26216.7
 10 10 2013  01 42  -21.0260 25983.5 -03490.9 -07.6518 26217.0
 10 10 2013  01 43  -21.0256 25983.6 -03490.9 -07.6519 26217.1
 10 10 2013  01 44  -21.0253 25983.4 -03490.8 -07.6517 26216.8
 10 10 2013  01 45  -21.0247 25983.1 -03490.6 -07.6514 26216.5
 10 10 2013  01 46  -21.0242 25983.0 -03490.5 -07.6513 26216.4
 10 10 2013  01 47  -21.0239 25982.8 -03490.6 -07.6514 26216.3
 10 10 2013  01 48  -21.0238 25982.6 -03490.5 -07.6513 26216.0
 10 10 2013  01 49  -21.0238 25982.5 -03490.5 -07.6513 26215.9
 10 10 2013  01 50  -21.0236 25982.7 -03490.6 -07.6515 26216.1
 10 10 2013  01 51  -21.0235 25983.0 -03490.8 -07.6519 26216.5
 10 10 2013  01 52  -21.0237 25983.5 -03491.1 -07.6524 26217.0
 10 10 2013  01 53  -21.0239 25983.9 -03491.4 -07.6529 26217.5
 10 10 2013  01 54  -21.0239 25984.2 -03491.6 -07.6533 26217.7
 10 10 2013  01 55  -21.0235 25984.3 -03491.6 -07.6533 26217.8
 10 10 2013  01 56  -21.0233 25984.2 -03491.6 -07.6532 26217.7
 10 10 2013  01 57  -21.0235 25984.1 -03491.6 -07.6532 26217.6
 10 10 2013  01 58  -21.0239 25983.8 -03491.5 -07.6531 26217.4
 10 10 2013  01 59  -21.0243 25983.6 -03491.4 -07.6529 26217.1
 10 10 2013  02 00  -21.0245 25983.5 -03491.3 -07.6528 26217.0
 10 10 2013  02 01  -21.0247 25983.5 -03491.3 -07.6528 26217.0
 10 10 2013  02 02  -21.0249 25983.7 -03491.4 -07.6530 26217.2
 10 10 2013  02 03  -21.0250 25984.2 -03491.7 -07.6534 26217.8
 10 10 2013  02 04  -21.0251 25985.1 -03492.2 -07.6541 26218.7
 10 10 2013  02 05  -21.0250 25985.9 -03492.5 -07.6548 26219.5
 10 10 2013  02 06  -21.0249 25986.6 -03492.9 -07.6553 26220.2
 10 10 2013  02 07  -21.0247 25987.1 -03493.1 -07.6556 26220.9
 10 10 2013  02 08  -21.0246 25987.6 -03493.4 -07.6560 26221.4
 10 10 2013  02 09  -21.0248 25987.9 -03493.4 -07.6561 26221.7
 10 10 2013  02 10  -21.0251 25988.1 -03493.5 -07.6562 26221.9
 10 10 2013  02 11  -21.0254 25988.4 -03493.6 -07.6563 26222.1
 10 10 2013  02 12  -21.0256 25988.7 -03493.6 -07.6563 26222.5
 10 10 2013  02 13  -21.0259 25989.0 -03493.8 -07.6565 26222.8
 10 10 2013  02 14  -21.0261 25989.3 -03493.9 -07.6566 26223.1
 10 10 2013  02 15  -21.0263 25989.6 -03493.9 -07.6567 26223.4
 10 10 2013  02 16  -21.0266 25989.7 -03493.9 -07.6566 26223.5
 10 10 2013  02 17  -21.0268 25989.8 -03493.9 -07.6565 26223.6
 10 10 2013  02 18  -21.0269 25989.8 -03493.8 -07.6563 26223.5
 10 10 2013  02 19  -21.0269 25989.7 -03493.7 -07.6562 26223.5
 10 10 2013  02 20  -21.0270 25989.8 -03493.7 -07.6561 26223.6
 10 10 2013  02 21  -21.0273 25989.9 -03493.7 -07.6561 26223.7
 10 10 2013  02 22  -21.0277 25990.0 -03493.7 -07.6561 26223.8
 10 10 2013  02 23  -21.0281 25990.3 -03493.8 -07.6562 26224.0
 10 10 2013  02 24  -21.0285 25990.6 -03493.9 -07.6563 26224.4
 10 10 2013  02 25  -21.0288 25990.9 -03494.0 -07.6565 26224.7
 10 10 2013  02 26  -21.0290 25991.1 -03494.1 -07.6566 26224.9
 10 10 2013  02 27  -21.0291 25991.3 -03494.1 -07.6566 26225.1
 10 10 2013  02 28  -21.0293 25991.5 -03494.1 -07.6566 26225.3
 10 10 2013  02 29  -21.0295 25991.7 -03494.1 -07.6565 26225.5
 10 10 2013  02 30  -21.0295 25991.8 -03494.1 -07.6565 26225.6
 10 10 2013  02 31  -21.0295 25992.0 -03494.1 -07.6564 26225.8
 10 10 2013  02 32  -21.0294 25992.1 -03494.1 -07.6564 26225.9
 10 10 2013  02 33  -21.0294 25992.2 -03494.1 -07.6563 26226.0
 10 10 2013  02 34  -21.0294 25992.3 -03494.1 -07.6563 26226.1
 10 10 2013  02 35  -21.0294 25992.6 -03494.2 -07.6564 26226.4
 10 10 2013  02 36  -21.0295 25993.0 -03494.4 -07.6567 26226.8
 10 10 2013  02 37  -21.0296 25993.3 -03494.5 -07.6568 26227.1
 10 10 2013  02 38  -21.0298 25993.4 -03494.6 -07.6569 26227.3
 10 10 2013  02 39  -21.0298 25993.6 -03494.5 -07.6568 26227.5
 10 10 2013  02 40  -21.0298 25993.7 -03494.5 -07.6568 26227.6
 10 10 2013  02 41  -21.0298 25993.7 -03494.5 -07.6568 26227.6
 10 10 2013  02 42  -21.0299 25993.6 -03494.5 -07.6566 26227.4
 10 10 2013  02 43  -21.0299 25993.4 -03494.3 -07.6564 26227.2
 10 10 2013  02 44  -21.0298 25993.4 -03494.2 -07.6562 26227.2
 10 10 2013  02 45  -21.0298 25993.4 -03494.2 -07.6562 26227.2
 10 10 2013  02 46  -21.0298 25993.6 -03494.3 -07.6564 26227.4
 10 10 2013  02 47  -21.0299 25993.8 -03494.4 -07.6566 26227.7
 10 10 2013  02 48  -21.0300 25994.2 -03494.6 -07.6569 26228.0
 10 10 2013  02 49  -21.0301 25994.5 -03494.8 -07.6570 26228.3
 10 10 2013  02 50  -21.0304 25994.7 -03494.9 -07.6573 26228.6
 10 10 2013  02 51  -21.0305 25994.8 -03494.9 -07.6573 26228.7
 10 10 2013  02 52  -21.0306 25994.7 -03494.8 -07.6571 26228.5
 10 10 2013  02 53  -21.0307 25994.4 -03494.6 -07.6568 26228.2
 10 10 2013  02 54  -21.0307 25994.0 -03494.4 -07.6565 26227.8
 10 10 2013  02 55  -21.0306 25993.7 -03494.3 -07.6562 26227.5
 10 10 2013  02 56  -21.0304 25993.5 -03494.1 -07.6559 26227.3
 10 10 2013  02 57  -21.0303 25993.5 -03494.1 -07.6560 26227.3
 10 10 2013  02 58  -21.0305 25993.6 -03494.2 -07.6561 26227.4
 10 10 2013  02 59  -21.0306 25993.8 -03494.3 -07.6563 26227.6
 10 10 2013  03 00  -21.0307 25993.9 -03494.4 -07.6565 26227.7
 10 10 2013  03 01  -21.0308 25994.0 -03494.5 -07.6565 26227.8
 10 10 2013  03 02  -21.0309 25994.0 -03494.5 -07.6566 26227.9
 10 10 2013  03 03  -21.0308 25994.1 -03494.5 -07.6566 26227.9
 10 10 2013  03 04  -21.0308 25994.2 -03494.5 -07.6566 26228.0
 10 10 2013  03 05  -21.0307 25994.3 -03494.5 -07.6566 26228.1
 10 10 2013  03 06  -21.0308 25994.5 -03494.6 -07.6567 26228.3
 10 10 2013  03 07  -21.0311 25994.8 -03494.8 -07.6570 26228.6
 10 10 2013  03 08  -21.0312 25995.1 -03494.9 -07.6572 26229.0
 10 10 2013  03 09  -21.0313 25995.4 -03495.0 -07.6573 26229.3
 10 10 2013  03 10  -21.0314 25995.6 -03495.1 -07.6574 26229.5
 10 10 2013  03 11  -21.0315 25995.7 -03495.1 -07.6574 26229.6
 10 10 2013  03 12  -21.0315 25995.7 -03495.0 -07.6573 26229.6
 10 10 2013  03 13  -21.0313 25995.6 -03494.9 -07.6570 26229.5
 10 10 2013  03 14  -21.0313 25995.6 -03494.8 -07.6569 26229.5
 10 10 2013  03 15  -21.0313 25995.7 -03494.8 -07.6568 26229.5
 10 10 2013  03 16  -21.0313 25995.6 -03494.7 -07.6566 26229.5
 10 10 2013  03 17  -21.0313 25995.5 -03494.6 -07.6565 26229.3
 10 10 2013  03 18  -21.0313 25995.3 -03494.5 -07.6563 26229.1
 10 10 2013  03 19  -21.0312 25995.2 -03494.4 -07.6561 26229.0
 10 10 2013  03 20  -21.0309 25995.1 -03494.3 -07.6560 26228.9
 10 10 2013  03 21  -21.0308 25995.0 -03494.3 -07.6558 26228.8
 10 10 2013  03 22  -21.0306 25994.7 -03494.2 -07.6557 26228.5
 10 10 2013  03 23  -21.0305 25994.6 -03494.0 -07.6555 26228.3
 10 10 2013  03 24  -21.0304 25994.3 -03493.9 -07.6553 26228.1
 10 10 2013  03 25  -21.0304 25994.1 -03493.8 -07.6552 26227.8
 10 10 2013  03 26  -21.0303 25993.9 -03493.8 -07.6550 26227.6
 10 10 2013  03 27  -21.0300 25993.8 -03493.7 -07.6550 26227.5
 10 10 2013  03 28  -21.0298 25993.9 -03493.7 -07.6549 26227.6
 10 10 2013  03 29  -21.0298 25993.9 -03493.7 -07.6550 26227.6
 10 10 2013  03 30  -21.0297 25993.9 -03493.8 -07.6551 26227.7
 10 10 2013  03 31  -21.0295 25993.9 -03493.8 -07.6552 26227.7
 10 10 2013  03 32  -21.0293 25994.0 -03493.9 -07.6552 26227.8
 10 10 2013  03 33  -21.0290 25994.2 -03494.0 -07.6554 26228.0
 10 10 2013  03 34  -21.0290 25994.4 -03494.1 -07.6556 26228.2
 10 10 2013  03 35  -21.0291 25994.6 -03494.2 -07.6558 26228.4
 10 10 2013  03 36  -21.0293 25994.9 -03494.3 -07.6560 26228.7
 10 10 2013  03 37  -21.0296 25995.1 -03494.4 -07.6562 26228.9
 10 10 2013  03 38  -21.0297 25995.1 -03494.4 -07.6562 26228.9
 10 10 2013  03 39  -21.0298 25995.1 -03494.4 -07.6561 26228.9
 10 10 2013  03 40  -21.0298 25994.9 -03494.3 -07.6559 26228.7
 10 10 2013  03 41  -21.0297 25994.7 -03494.2 -07.6557 26228.5
 10 10 2013  03 42  -21.0296 25994.3 -03494.0 -07.6554 26228.1
 10 10 2013  03 43  -21.0295 25994.1 -03493.8 -07.6552 26227.8
 10 10 2013  03 44  -21.0295 25993.8 -03493.7 -07.6550 26227.5
 10 10 2013  03 45  -21.0295 25993.5 -03493.6 -07.6548 26227.2
 10 10 2013  03 46  -21.0295 25993.3 -03493.5 -07.6546 26227.0
 10 10 2013  03 47  -21.0297 25993.1 -03493.4 -07.6546 26226.8
 10 10 2013  03 48  -21.0297 25992.8 -03493.4 -07.6546 26226.5
 10 10 2013  03 49  -21.0297 25992.6 -03493.3 -07.6544 26226.3
 10 10 2013  03 50  -21.0296 25992.4 -03493.3 -07.6544 26226.1
 10 10 2013  03 51  -21.0297 25992.4 -03493.3 -07.6545 26226.1
 10 10 2013  03 52  -21.0296 25992.4 -03493.3 -07.6545 26226.1
 10 10 2013  03 53  -21.0298 25992.4 -03493.4 -07.6546 26226.1
 10 10 2013  03 54  -21.0300 25992.5 -03493.5 -07.6549 26226.2
 10 10 2013  03 55  -21.0300 25992.4 -03493.5 -07.6549 26226.1
 10 10 2013  03 56  -21.0300 25992.3 -03493.5 -07.6549 26226.0
 10 10 2013  03 57  -21.0300 25992.2 -03493.5 -07.6549 26225.9
 10 10 2013  03 58  -21.0301 25992.0 -03493.4 -07.6549 26225.8
 10 10 2013  03 59  -21.0301 25991.9 -03493.4 -07.6549 26225.6
 10 10 2013  04 00  -21.0302 25991.7 -03493.4 -07.6549 26225.5
 10 10 2013  04 01  -21.0303 25991.6 -03493.4 -07.6549 26225.3
 10 10 2013  04 02  -21.0303 25991.3 -03493.3 -07.6548 26225.0
 10 10 2013  04 03  -21.0306 25991.1 -03493.2 -07.6547 26224.8
 10 10 2013  04 04  -21.0310 25991.0 -03493.2 -07.6548 26224.7
 10 10 2013  04 05  -21.0314 25991.1 -03493.3 -07.6549 26224.8
 10 10 2013  04 06  -21.0321 25991.3 -03493.5 -07.6552 26225.0
 10 10 2013  04 07  -21.0327 25991.5 -03493.6 -07.6554 26225.2
 10 10 2013  04 08  -21.0333 25991.7 -03493.7 -07.6557 26225.5
 10 10 2013  04 09  -21.0338 25991.9 -03493.8 -07.6558 26225.7
 10 10 2013  04 10  -21.0343 25992.0 -03493.9 -07.6559 26225.8
 10 10 2013  04 11  -21.0349 25992.1 -03493.9 -07.6559 26225.9
 10 10 2013  04 12  -21.0352 25992.3 -03493.9 -07.6559 26226.0
 10 10 2013  04 13  -21.0355 25992.4 -03494.0 -07.6559 26226.2
 10 10 2013  04 14  -21.0357 25992.7 -03494.1 -07.6561 26226.5
 10 10 2013  04 15  -21.0358 25992.9 -03494.2 -07.6562 26226.8
 10 10 2013  04 16  -21.0358 25993.0 -03494.1 -07.6561 26226.8
 10 10 2013  04 17  -21.0356 25992.9 -03494.1 -07.6560 26226.7
 10 10 2013  04 18  -21.0357 25993.0 -03494.1 -07.6560 26226.8
 10 10 2013  04 19  -21.0359 25993.1 -03494.1 -07.6560 26226.9
 10 10 2013  04 20  -21.0360 25993.1 -03494.1 -07.6560 26226.9
 10 10 2013  04 21  -21.0363 25993.3 -03494.2 -07.6562 26227.1
 10 10 2013  04 22  -21.0364 25993.4 -03494.2 -07.6562 26227.2
 10 10 2013  04 23  -21.0364 25993.2 -03494.1 -07.6560 26227.0
 10 10 2013  04 24  -21.0364 25993.1 -03494.0 -07.6558 26226.8
 10 10 2013  04 25  -21.0366 25993.0 -03493.9 -07.6557 26226.8
 10 10 2013  04 26  -21.0367 25993.0 -03494.0 -07.6558 26226.8
 10 10 2013  04 27  -21.0368 25993.2 -03494.1 -07.6559 26227.0
 10 10 2013  04 28  -21.0369 25993.4 -03494.1 -07.6561 26227.2
 10 10 2013  04 29  -21.0369 25993.5 -03494.2 -07.6562 26227.3
 10 10 2013  04 30  -21.0368 25993.6 -03494.3 -07.6563 26227.4
 10 10 2013  04 31  -21.0368 25993.5 -03494.2 -07.6562 26227.3
 10 10 2013  04 32  -21.0369 25993.5 -03494.3 -07.6563 26227.3
 10 10 2013  04 33  -21.0369 25993.4 -03494.2 -07.6562 26227.2
 10 10 2013  04 34  -21.0369 25993.4 -03494.2 -07.6561 26227.2
 10 10 2013  04 35  -21.0369 25993.2 -03494.1 -07.6561 26227.0
 10 10 2013  04 36  -21.0368 25993.0 -03494.1 -07.6560 26226.8
 10 10 2013  04 37  -21.0367 25992.9 -03494.0 -07.6558 26226.7
 10 10 2013  04 38  -21.0365 25993.0 -03494.0 -07.6559 26226.8
 10 10 2013  04 39  -21.0368 25992.9 -03494.0 -07.6560 26226.7
 10 10 2013  04 40  -21.0369 25993.0 -03494.1 -07.6561 26226.8
 10 10 2013  04 41  -21.0373 25993.0 -03494.2 -07.6562 26226.8
 10 10 2013  04 42  -21.0380 25993.1 -03494.2 -07.6563 26226.9
 10 10 2013  04 43  -21.0385 25993.0 -03494.2 -07.6564 26226.9
 10 10 2013  04 44  -21.0388 25993.2 -03494.2 -07.6563 26227.0
 10 10 2013  04 45  -21.0391 25993.1 -03494.2 -07.6563 26226.9
 10 10 2013  04 46  -21.0393 25993.0 -03494.1 -07.6561 26226.8
 10 10 2013  04 47  -21.0395 25992.8 -03494.1 -07.6560 26226.6
 10 10 2013  04 48  -21.0391 25992.9 -03494.0 -07.6559 26226.7
 10 10 2013  04 49  -21.0387 25992.9 -03494.1 -07.6560 26226.7
 10 10 2013  04 50  -21.0381 25992.9 -03494.0 -07.6559 26226.6
 10 10 2013  04 51  -21.0377 25992.9 -03494.1 -07.6560 26226.7
 10 10 2013  04 52  -21.0372 25993.0 -03494.1 -07.6561 26226.8
 10 10 2013  04 53  -21.0368 25993.0 -03494.1 -07.6561 26226.8
 10 10 2013  04 54  -21.0368 25993.0 -03494.2 -07.6562 26226.8
 10 10 2013  04 55  -21.0368 25993.3 -03494.3 -07.6564 26227.1
 10 10 2013  04 56  -21.0372 25993.7 -03494.5 -07.6567 26227.5
 10 10 2013  04 57  -21.0376 25994.1 -03494.7 -07.6571 26227.9
 10 10 2013  04 58  -21.0376 25994.1 -03494.7 -07.6571 26228.0
 10 10 2013  04 59  -21.0376 25993.9 -03494.6 -07.6570 26227.8
 10 10 2013  05 00  -21.0376 25994.0 -03494.6 -07.6568 26227.8
 10 10 2013  05 01  -21.0379 25994.2 -03494.7 -07.6569 26228.1
 10 10 2013  05 02  -21.0383 25994.6 -03494.8 -07.6571 26228.5
 10 10 2013  05 03  -21.0387 25995.2 -03495.0 -07.6574 26229.1
 10 10 2013  05 04  -21.0396 25996.1 -03495.3 -07.6578 26230.0
 10 10 2013  05 05  -21.0405 25997.0 -03495.8 -07.6585 26231.0
 10 10 2013  05 06  -21.0415 25997.9 -03496.1 -07.6589 26231.9
 10 10 2013  05 07  -21.0422 25998.8 -03496.3 -07.6592 26232.8
 10 10 2013  05 08  -21.0428 25999.8 -03496.6 -07.6596 26233.9
 10 10 2013  05 09  -21.0432 26000.8 -03496.9 -07.6598 26234.9
 10 10 2013  05 10  -21.0436 26001.7 -03497.1 -07.6601 26235.8
 10 10 2013  05 11  -21.0439 26002.4 -03497.3 -07.6602 26236.6
 10 10 2013  05 12  -21.0441 26002.9 -03497.3 -07.6601 26237.0
 10 10 2013  05 13  -21.0440 26003.1 -03497.2 -07.6599 26237.2
 10 10 2013  05 14  -21.0437 26003.2 -03497.0 -07.6594 26237.3
 10 10 2013  05 15  -21.0432 26003.6 -03497.0 -07.6592 26237.7
 10 10 2013  05 16  -21.0429 26004.0 -03497.0 -07.6591 26238.0
 10 10 2013  05 17  -21.0426 26004.4 -03497.0 -07.6590 26238.5
 10 10 2013  05 18  -21.0424 26005.0 -03497.2 -07.6592 26239.1
 10 10 2013  05 19  -21.0421 26005.5 -03497.3 -07.6594 26239.6
 10 10 2013  05 20  -21.0419 26005.8 -03497.3 -07.6593 26239.9
 10 10 2013  05 21  -21.0422 26006.1 -03497.3 -07.6592 26240.2
 10 10 2013  05 22  -21.0422 26006.0 -03497.1 -07.6588 26240.1
 10 10 2013  05 23  -21.0417 26005.9 -03496.9 -07.6584 26239.9
 10 10 2013  05 24  -21.0418 26005.6 -03496.6 -07.6579 26239.6
 10 10 2013  05 25  -21.0421 26005.4 -03496.4 -07.6575 26239.4
 10 10 2013  05 26  -21.0424 26005.3 -03496.3 -07.6573 26239.3
 10 10 2013  05 27  -21.0425 26005.1 -03496.1 -07.6569 26239.1
 10 10 2013  05 28  -21.0422 26004.9 -03495.9 -07.6565 26238.8
 10 10 2013  05 29  -21.0419 26004.6 -03495.7 -07.6561 26238.5
 10 10 2013  05 30  -21.0411 26004.3 -03495.4 -07.6557 26238.2
 10 10 2013  05 31  -21.0402 26004.1 -03495.3 -07.6553 26237.9
 10 10 2013  05 32  -21.0395 26003.8 -03495.1 -07.6551 26237.6
 10 10 2013  05 33  -21.0389 26003.5 -03494.9 -07.6548 26237.3
 10 10 2013  05 34  -21.0387 26003.3 -03494.9 -07.6548 26237.1
 10 10 2013  05 35  -21.0385 26003.3 -03494.9 -07.6548 26237.1
 10 10 2013  05 36  -21.0381 26003.0 -03494.8 -07.6546 26236.8
 10 10 2013  05 37  -21.0372 26002.6 -03494.6 -07.6543 26236.4
 10 10 2013  05 38  -21.0362 26002.1 -03494.3 -07.6539 26235.9
 10 10 2013  05 39  -21.0352 26001.7 -03494.1 -07.6536 26235.4
 10 10 2013  05 40  -21.0341 26001.4 -03494.0 -07.6535 26235.1
 10 10 2013  05 41  -21.0333 26001.3 -03494.0 -07.6535 26235.0
 10 10 2013  05 42  -21.0323 26001.1 -03494.0 -07.6535 26234.8
 10 10 2013  05 43  -21.0314 26001.2 -03494.1 -07.6537 26234.9
 10 10 2013  05 44  -21.0306 26001.3 -03494.3 -07.6540 26235.0
 10 10 2013  05 45  -21.0301 26001.3 -03494.4 -07.6543 26235.1
 10 10 2013  05 46  -21.0296 26001.3 -03494.5 -07.6544 26235.1
 10 10 2013  05 47  -21.0292 26001.2 -03494.5 -07.6546 26235.0
 10 10 2013  05 48  -21.0288 26001.0 -03494.5 -07.6546 26234.8
 10 10 2013  05 49  -21.0282 26000.9 -03494.5 -07.6546 26234.6
 10 10 2013  05 50  -21.0276 26001.2 -03494.6 -07.6548 26235.0
 10 10 2013  05 51  -21.0268 26002.1 -03495.1 -07.6556 26235.9
 10 10 2013  05 52  -21.0264 26003.2 -03495.8 -07.6567 26237.1
 10 10 2013  05 53  -21.0263 26004.0 -03496.3 -07.6576 26238.0
 10 10 2013  05 54  -21.0261 26004.5 -03496.6 -07.6582 26238.5
 10 10 2013  05 55  -21.0258 26004.6 -03496.7 -07.6583 26238.7
 10 10 2013  05 56  -21.0258 26004.6 -03496.6 -07.6582 26238.6
 10 10 2013  05 57  -21.0258 26004.5 -03496.5 -07.6580 26238.5
 10 10 2013  05 58  -21.0258 26004.4 -03496.4 -07.6578 26238.4
 10 10 2013  05 59  -21.0257 26004.3 -03496.3 -07.6576 26238.3
 10 10 2013  06 00  -21.0257 26004.3 -03496.3 -07.6575 26238.3
 10 10 2013  06 01  -21.0258 26004.3 -03496.3 -07.6574 26238.3
 10 10 2013  06 02  -21.0258 26004.3 -03496.2 -07.6574 26238.3
 10 10 2013  06 03  -21.0258 26004.3 -03496.2 -07.6573 26238.3
 10 10 2013  06 04  -21.0260 26004.3 -03496.2 -07.6572 26238.3
 10 10 2013  06 05  -21.0261 26004.1 -03496.1 -07.6571 26238.1
 10 10 2013  06 06  -21.0264 26003.9 -03495.9 -07.6568 26237.8
 10 10 2013  06 07  -21.0267 26003.5 -03495.7 -07.6565 26237.4
 10 10 2013  06 08  -21.0271 26003.3 -03495.6 -07.6563 26237.2
 10 10 2013  06 09  -21.0274 26003.2 -03495.5 -07.6561 26237.1
 10 10 2013  06 10  -21.0278 26003.1 -03495.5 -07.6561 26237.0
 10 10 2013  06 11  -21.0282 26003.2 -03495.5 -07.6561 26237.1
 10 10 2013  06 12  -21.0287 26003.4 -03495.6 -07.6563 26237.3
 10 10 2013  06 13  -21.0291 26003.7 -03495.7 -07.6564 26237.6
 10 10 2013  06 14  -21.0294 26003.9 -03495.8 -07.6566 26237.8
 10 10 2013  06 15  -21.0297 26004.0 -03495.8 -07.6566 26237.9
 10 10 2013  06 16  -21.0299 26004.0 -03495.8 -07.6565 26237.9
 10 10 2013  06 17  -21.0302 26003.9 -03495.7 -07.6564 26237.9
 10 10 2013  06 18  -21.0306 26003.7 -03495.6 -07.6561 26237.6
 10 10 2013  06 19  -21.0307 26003.3 -03495.3 -07.6557 26237.1
 10 10 2013  06 20  -21.0308 26002.7 -03495.0 -07.6551 26236.5
 10 10 2013  06 21  -21.0305 26002.1 -03494.6 -07.6545 26235.9
 10 10 2013  06 22  -21.0303 26001.7 -03494.3 -07.6540 26235.4
 10 10 2013  06 23  -21.0300 26001.5 -03494.2 -07.6539 26235.3
 10 10 2013  06 24  -21.0297 26001.5 -03494.3 -07.6540 26235.3
 10 10 2013  06 25  -21.0296 26001.5 -03494.3 -07.6541 26235.3
 10 10 2013  06 26  -21.0294 26001.5 -03494.4 -07.6542 26235.3
 10 10 2013  06 27  -21.0294 26001.6 -03494.5 -07.6544 26235.4
 10 10 2013  06 28  -21.0295 26001.7 -03494.6 -07.6547 26235.5
 10 10 2013  06 29  -21.0296 26001.9 -03494.8 -07.6549 26235.7
 10 10 2013  06 30  -21.0295 26001.9 -03494.8 -07.6551 26235.8
 10 10 2013  06 31  -21.0296 26002.1 -03494.9 -07.6552 26235.9
 10 10 2013  06 32  -21.0296 26002.2 -03495.0 -07.6552 26236.0
 10 10 2013  06 33  -21.0295 26002.3 -03495.0 -07.6553 26236.1
 10 10 2013  06 34  -21.0294 26002.3 -03495.1 -07.6554 26236.2
 10 10 2013  06 35  -21.0293 26002.4 -03495.1 -07.6555 26236.3
 10 10 2013  06 36  -21.0292 26002.5 -03495.1 -07.6555 26236.3
 10 10 2013  06 37  -21.0292 26002.3 -03495.1 -07.6554 26236.2
 10 10 2013  06 38  -21.0293 26002.3 -03495.0 -07.6554 26236.1
 10 10 2013  06 39  -21.0294 26002.2 -03495.0 -07.6553 26236.0
 10 10 2013  06 40  -21.0294 26002.2 -03495.0 -07.6553 26236.0
 10 10 2013  06 41  -21.0294 26002.2 -03495.0 -07.6553 26236.1
 10 10 2013  06 42  -21.0293 26002.3 -03495.0 -07.6554 26236.2
 10 10 2013  06 43  -21.0293 26002.4 -03495.1 -07.6554 26236.2
 10 10 2013  06 44  -21.0292 26002.5 -03495.1 -07.6554 26236.3
 10 10 2013  06 45  -21.0291 26002.6 -03495.2 -07.6556 26236.5
 10 10 2013  06 46  -21.0291 26002.7 -03495.2 -07.6556 26236.5
 10 10 2013  06 47  -21.0289 26002.8 -03495.3 -07.6557 26236.6
 10 10 2013  06 48  -21.0290 26002.9 -03495.3 -07.6559 26236.8
 10 10 2013  06 49  -21.0290 26003.0 -03495.4 -07.6560 26236.9
 10 10 2013  06 50  -21.0292 26003.1 -03495.4 -07.6560 26236.9
 10 10 2013  06 51  -21.0294 26003.2 -03495.5 -07.6560 26237.0
 10 10 2013  06 52  -21.0295 26003.2 -03495.5 -07.6561 26237.1
 10 10 2013  06 53  -21.0296 26003.2 -03495.4 -07.6559 26237.0
 10 10 2013  06 54  -21.0297 26003.2 -03495.4 -07.6559 26237.1
 10 10 2013  06 55  -21.0297 26003.2 -03495.4 -07.6558 26237.1
 10 10 2013  06 56  -21.0298 26003.3 -03495.4 -07.6558 26237.1
 10 10 2013  06 57  -21.0296 26003.3 -03495.4 -07.6558 26237.2
 10 10 2013  06 58  -21.0293 26003.3 -03495.3 -07.6557 26237.2
 10 10 2013  06 59  -21.0292 26003.3 -03495.3 -07.6557 26237.2
 10 10 2013  07 00  -21.0292 26003.3 -03495.3 -07.6557 26237.1
 10 10 2013  07 01  -21.0291 26003.2 -03495.3 -07.6556 26237.1
 10 10 2013  07 02  -21.0288 26003.2 -03495.2 -07.6555 26237.1
 10 10 2013  07 03  -21.0286 26003.2 -03495.2 -07.6555 26237.0
 10 10 2013  07 04  -21.0282 26003.3 -03495.3 -07.6556 26237.2
 10 10 2013  07 05  -21.0280 26003.4 -03495.3 -07.6556 26237.2
 10 10 2013  07 06  -21.0280 26003.3 -03495.3 -07.6557 26237.2
 10 10 2013  07 07  -21.0278 26003.3 -03495.3 -07.6557 26237.1
 10 10 2013  07 08  -21.0278 26003.3 -03495.3 -07.6556 26237.1
 10 10 2013  07 09  -21.0277 26003.3 -03495.3 -07.6556 26237.1
 10 10 2013  07 10  -21.0277 26003.2 -03495.2 -07.6555 26237.0
 10 10 2013  07 11  -21.0275 26003.2 -03495.2 -07.6555 26237.0
 10 10 2013  07 12  -21.0274 26003.0 -03495.1 -07.6554 26236.9
 10 10 2013  07 13  -21.0273 26003.0 -03495.1 -07.6553 26236.9
 10 10 2013  07 14  -21.0273 26003.0 -03495.1 -07.6553 26236.9
 10 10 2013  07 15  -21.0273 26003.0 -03495.1 -07.6554 26236.8
 10 10 2013  07 16  -21.0273 26002.9 -03495.1 -07.6554 26236.8
 10 10 2013  07 17  -21.0273 26003.1 -03495.2 -07.6555 26237.0
 10 10 2013  07 18  -21.0275 26003.3 -03495.3 -07.6557 26237.2
 10 10 2013  07 19  -21.0275 26003.5 -03495.4 -07.6558 26237.3
 10 10 2013  07 20  -21.0274 26003.7 -03495.5 -07.6560 26237.5
 10 10 2013  07 21  -21.0273 26003.8 -03495.6 -07.6561 26237.7
 10 10 2013  07 22  -21.0275 26003.8 -03495.6 -07.6562 26237.7
 10 10 2013  07 23  -21.0273 26004.0 -03495.6 -07.6562 26237.9
 10 10 2013  07 24  -21.0271 26004.0 -03495.7 -07.6562 26237.9
 10 10 2013  07 25  -21.0267 26004.0 -03495.6 -07.6561 26237.9
 10 10 2013  07 26  -21.0265 26003.9 -03495.6 -07.6560 26237.7
 10 10 2013  07 27  -21.0262 26003.8 -03495.5 -07.6559 26237.6
 10 10 2013  07 28  -21.0259 26003.5 -03495.4 -07.6557 26237.4
 10 10 2013  07 29  -21.0258 26003.4 -03495.3 -07.6556 26237.3
 10 10 2013  07 30  -21.0257 26003.3 -03495.2 -07.6555 26237.1
 10 10 2013  07 31  -21.0257 26003.2 -03495.2 -07.6555 26237.0
 10 10 2013  07 32  -21.0257 26003.1 -03495.2 -07.6555 26236.9
 10 10 2013  07 33  -21.0255 26003.0 -03495.2 -07.6555 26236.8
 10 10 2013  07 34  -21.0253 26002.9 -03495.1 -07.6553 26236.7
 10 10 2013  07 35  -21.0253 26002.8 -03495.1 -07.6554 26236.7
 10 10 2013  07 36  -21.0255 26002.9 -03495.2 -07.6555 26236.7
 10 10 2013  07 37  -21.0255 26003.0 -03495.2 -07.6556 26236.8
 10 10 2013  07 38  -21.0255 26002.9 -03495.3 -07.6557 26236.8
 10 10 2013  07 39  -21.0254 26002.9 -03495.3 -07.6558 26236.8
 10 10 2013  07 40  -21.0253 26002.9 -03495.3 -07.6558 26236.8
 10 10 2013  07 41  -21.0252 26002.9 -03495.3 -07.6558 26236.7
 10 10 2013  07 42  -21.0253 26002.9 -03495.4 -07.6559 26236.7
 10 10 2013  07 43  -21.0254 26002.8 -03495.4 -07.6559 26236.7
 10 10 2013  07 44  -21.0252 26002.8 -03495.4 -07.6560 26236.7
 10 10 2013  07 45  -21.0251 26002.9 -03495.4 -07.6561 26236.8
 10 10 2013  07 46  -21.0247 26002.9 -03495.5 -07.6561 26236.7
 10 10 2013  07 47  -21.0244 26002.9 -03495.5 -07.6562 26236.8
 10 10 2013  07 48  -21.0241 26002.7 -03495.5 -07.6562 26236.6
 10 10 2013  07 49  -21.0239 26002.7 -03495.5 -07.6562 26236.6
 10 10 2013  07 50  -21.0238 26002.7 -03495.5 -07.6563 26236.6
 10 10 2013  07 51  -21.0237 26002.7 -03495.5 -07.6563 26236.6
 10 10 2013  07 52  -21.0237 26002.6 -03495.6 -07.6564 26236.6
 10 10 2013  07 53  -21.0235 26002.6 -03495.5 -07.6564 26236.5
 10 10 2013  07 54  -21.0235 26002.7 -03495.6 -07.6565 26236.6
 10 10 2013  07 55  -21.0234 26002.7 -03495.6 -07.6566 26236.6
 10 10 2013  07 56  -21.0233 26002.8 -03495.7 -07.6568 26236.7
 10 10 2013  07 57  -21.0232 26002.7 -03495.8 -07.6568 26236.6
 10 10 2013  07 58  -21.0230 26002.7 -03495.8 -07.6569 26236.6
 10 10 2013  07 59  -21.0229 26002.7 -03495.8 -07.6570 26236.6
 10 10 2013  08 00  -21.0228 26002.7 -03495.9 -07.6571 26236.7
 10 10 2013  08 01  -21.0225 26002.8 -03496.0 -07.6573 26236.8
 10 10 2013  08 02  -21.0222 26002.7 -03496.0 -07.6574 26236.7
 10 10 2013  08 03  -21.0220 26002.7 -03496.1 -07.6575 26236.6
 10 10 2013  08 04  -21.0220 26002.6 -03496.2 -07.6577 26236.6
 10 10 2013  08 05  -21.0219 26002.6 -03496.2 -07.6578 26236.6
 10 10 2013  08 06  -21.0215 26002.5 -03496.2 -07.6578 26236.4
 10 10 2013  08 07  -21.0209 26002.4 -03496.1 -07.6577 26236.3
 10 10 2013  08 08  -21.0208 26002.3 -03496.2 -07.6578 26236.3
 10 10 2013  08 09  -21.0204 26002.2 -03496.2 -07.6580 26236.2
 10 10 2013  08 10  -21.0200 26002.1 -03496.2 -07.6579 26236.1
 10 10 2013  08 11  -21.0198 26002.2 -03496.3 -07.6581 26236.2
 10 10 2013  08 12  -21.0200 26002.4 -03496.5 -07.6585 26236.4
 10 10 2013  08 13  -21.0204 26002.8 -03496.8 -07.6591 26236.8
 10 10 2013  08 14  -21.0206 26003.1 -03497.1 -07.6597 26237.2
 10 10 2013  08 15  -21.0207 26003.3 -03497.3 -07.6600 26237.5
 10 10 2013  08 16  -21.0205 26003.5 -03497.5 -07.6603 26237.6
 10 10 2013  08 17  -21.0204 26003.5 -03497.5 -07.6604 26237.7
 10 10 2013  08 18  -21.0202 26003.4 -03497.4 -07.6601 26237.6
 10 10 2013  08 19  -21.0199 26003.2 -03497.2 -07.6598 26237.3
 10 10 2013  08 20  -21.0193 26002.9 -03497.0 -07.6594 26237.0
 10 10 2013  08 21  -21.0188 26002.6 -03496.7 -07.6590 26236.7
 10 10 2013  08 22  -21.0183 26002.5 -03496.6 -07.6587 26236.5
 10 10 2013  08 23  -21.0180 26002.4 -03496.6 -07.6587 26236.4
 10 10 2013  08 24  -21.0176 26002.4 -03496.6 -07.6586 26236.4
 10 10 2013  08 25  -21.0174 26002.5 -03496.7 -07.6589 26236.5
 10 10 2013  08 26  -21.0171 26002.6 -03496.7 -07.6590 26236.6
 10 10 2013  08 27  -21.0167 26002.5 -03496.7 -07.6590 26236.5
 10 10 2013  08 28  -21.0161 26002.2 -03496.6 -07.6588 26236.3
 10 10 2013  08 29  -21.0155 26002.0 -03496.5 -07.6587 26236.1
 10 10 2013  08 30  -21.0148 26001.8 -03496.4 -07.6586 26235.8
 10 10 2013  08 31  -21.0142 26001.5 -03496.4 -07.6585 26235.5
 10 10 2013  08 32  -21.0138 26001.3 -03496.5 -07.6587 26235.4
 10 10 2013  08 33  -21.0130 26001.1 -03496.5 -07.6588 26235.1
 10 10 2013  08 34  -21.0118 26000.9 -03496.5 -07.6590 26235.0
 10 10 2013  08 35  -21.0107 26000.8 -03496.6 -07.6592 26234.9
 10 10 2013  08 36  -21.0100 26000.8 -03496.8 -07.6597 26234.9
 10 10 2013  08 37  -21.0095 26000.8 -03497.1 -07.6602 26234.9
 10 10 2013  08 38  -21.0092 26000.7 -03497.3 -07.6608 26234.9
 10 10 2013  08 39  -21.0090 26000.7 -03497.6 -07.6614 26234.9
 10 10 2013  08 40  -21.0088 26000.7 -03497.9 -07.6621 26234.9
 10 10 2013  08 41  -21.0084 26000.6 -03498.2 -07.6626 26234.9
 10 10 2013  08 42  -21.0082 26000.7 -03498.5 -07.6633 26235.0
 10 10 2013  08 43  -21.0082 26000.7 -03498.7 -07.6639 26235.1
 10 10 2013  08 44  -21.0081 26000.7 -03499.0 -07.6644 26235.1
 10 10 2013  08 45  -21.0079 26000.6 -03499.3 -07.6651 26235.0
 10 10 2013  08 46  -21.0080 26000.4 -03499.5 -07.6656 26234.9
 10 10 2013  08 47  -21.0081 26000.4 -03499.8 -07.6662 26234.9
 10 10 2013  08 48  -21.0082 26000.4 -03500.0 -07.6667 26234.9
 10 10 2013  08 49  -21.0083 26000.3 -03500.2 -07.6672 26234.8
 10 10 2013  08 50  -21.0084 26000.2 -03500.4 -07.6676 26234.7
 10 10 2013  08 51  -21.0083 26000.1 -03500.6 -07.6681 26234.7
 10 10 2013  08 52  -21.0082 25999.8 -03500.7 -07.6683 26234.4
 10 10 2013  08 53  -21.0084 25999.7 -03500.8 -07.6687 26234.3
 10 10 2013  08 54  -21.0084 25999.5 -03501.0 -07.6690 26234.2
 10 10 2013  08 55  -21.0083 25999.3 -03501.1 -07.6694 26234.0
 10 10 2013  08 56  -21.0083 25999.2 -03501.3 -07.6699 26233.9
 10 10 2013  08 57  -21.0084 25999.1 -03501.5 -07.6704 26233.8
 10 10 2013  08 58  -21.0085 25999.0 -03501.8 -07.6709 26233.8
 10 10 2013  08 59  -21.0088 25999.1 -03502.0 -07.6715 26233.9
 10 10 2013  09 00  -21.0093 25999.2 -03502.3 -07.6721 26234.0
 10 10 2013  09 01  -21.0098 25999.1 -03502.6 -07.6727 26234.0
 10 10 2013  09 02  -21.0101 25998.9 -03502.8 -07.6731 26233.8
 10 10 2013  09 03  -21.0105 25998.9 -03503.0 -07.6736 26233.8
 10 10 2013  09 04  -21.0111 25999.0 -03503.3 -07.6742 26234.0
 10 10 2013  09 05  -21.0115 25999.1 -03503.5 -07.6747 26234.1
 10 10 2013  09 06  -21.0120 25999.5 -03503.9 -07.6753 26234.5
 10 10 2013  09 07  -21.0129 25999.8 -03504.3 -07.6761 26234.9
 10 10 2013  09 08  -21.0134 26000.1 -03504.6 -07.6768 26235.2
 10 10 2013  09 09  -21.0136 26000.3 -03504.9 -07.6773 26235.5
 10 10 2013  09 10  -21.0136 26000.5 -03505.1 -07.6777 26235.7
 10 10 2013  09 11  -21.0140 26000.8 -03505.3 -07.6781 26236.1
 10 10 2013  09 12  -21.0149 26001.3 -03505.6 -07.6786 26236.6
 10 10 2013  09 13  -21.0159 26001.7 -03505.9 -07.6790 26237.0
 10 10 2013  09 14  -21.0168 26002.1 -03506.1 -07.6793 26237.4
 10 10 2013  09 15  -21.0174 26002.5 -03506.3 -07.6797 26237.8
 10 10 2013  09 16  -21.0180 26002.8 -03506.4 -07.6798 26238.2
 10 10 2013  09 17  -21.0180 26003.1 -03506.5 -07.6799 26238.5
 10 10 2013  09 18  -21.0181 26003.2 -03506.5 -07.6800 26238.6
 10 10 2013  09 19  -21.0181 26003.3 -03506.6 -07.6801 26238.6
 10 10 2013  09 20  -21.0186 26003.3 -03506.6 -07.6802 26238.7
 10 10 2013  09 21  -21.0189 26003.5 -03506.8 -07.6804 26238.9
 10 10 2013  09 22  -21.0194 26003.5 -03506.8 -07.6805 26238.8
 10 10 2013  09 23  -21.0197 26003.5 -03506.9 -07.6806 26238.9
 10 10 2013  09 24  -21.0204 26003.3 -03506.9 -07.6808 26238.7
 10 10 2013  09 25  -21.0204 26003.1 -03506.9 -07.6808 26238.5
 10 10 2013  09 26  -21.0208 26003.0 -03506.9 -07.6808 26238.4
 10 10 2013  09 27  -21.0211 26002.8 -03506.9 -07.6809 26238.2
 10 10 2013  09 28  -21.0216 26002.7 -03507.0 -07.6811 26238.1
 10 10 2013  09 29  -21.0223 26002.7 -03507.1 -07.6814 26238.2
 10 10 2013  09 30  -21.0233 26002.6 -03507.2 -07.6816 26238.1
 10 10 2013  09 31  -21.0238 26002.5 -03507.3 -07.6818 26238.0
 10 10 2013  09 32  -21.0240 26002.3 -03507.3 -07.6818 26237.8
 10 10 2013  09 33  -21.0244 26002.3 -03507.4 -07.6820 26237.8
 10 10 2013  09 34  -21.0249 26002.4 -03507.6 -07.6825 26237.9
 10 10 2013  09 35  -21.0255 26002.7 -03507.8 -07.6829 26238.2
 10 10 2013  09 36  -21.0262 26002.9 -03508.0 -07.6833 26238.4
 10 10 2013  09 37  -21.0265 26002.8 -03508.1 -07.6835 26238.4
 10 10 2013  09 38  -21.0262 26002.9 -03508.3 -07.6838 26238.4
 10 10 2013  09 39  -21.0260 26002.1 -03508.1 -07.6836 26237.7
 10 10 2013  09 40  -21.0252 26001.9 -03508.0 -07.6835 26237.4
 10 10 2013  09 41  -21.0251 26001.8 -03508.0 -07.6836 26237.4
 10 10 2013  09 42  -21.0258 26002.0 -03508.2 -07.6839 26237.6
 10 10 2013  09 43  -21.0265 26002.0 -03508.2 -07.6841 26237.6
 10 10 2013  09 44  -21.0274 26002.2 -03508.4 -07.6843 26237.8
 10 10 2013  09 45  -21.0279 26002.3 -03508.5 -07.6844 26238.0
 10 10 2013  09 46  -21.0282 26002.6 -03508.6 -07.6847 26238.2
 10 10 2013  09 47  -21.0282 26002.6 -03508.7 -07.6850 26238.2
 10 10 2013  09 48  -21.0278 26002.7 -03508.9 -07.6853 26238.4
 10 10 2013  09 49  -21.0281 26003.5 -03509.3 -07.6860 26239.2
 10 10 2013  09 50  -21.0285 26004.1 -03509.7 -07.6867 26239.8
 10 10 2013  09 51  -21.0289 26004.6 -03510.0 -07.6872 26240.4
 10 10 2013  09 52  -21.0294 26005.4 -03510.5 -07.6878 26241.3
 10 10 2013  09 53  -21.0299 26006.1 -03510.8 -07.6883 26242.0
 10 10 2013  09 54  -21.0304 26006.9 -03511.1 -07.6887 26242.8
 10 10 2013  09 55  -21.0309 26007.6 -03511.2 -07.6888 26243.6
 10 10 2013  09 56  -21.0318 26008.4 -03511.3 -07.6888 26244.3
 10 10 2013  09 57  -21.0324 26009.0 -03511.3 -07.6887 26244.9
 10 10 2013  09 58  -21.0333 26009.5 -03511.3 -07.6885 26245.4
 10 10 2013  09 59  -21.0343 26009.6 -03511.2 -07.6882 26245.5
 10 10 2013  10 00  -21.0341 26009.7 -03510.9 -07.6876 26245.5
 10 10 2013  10 01  -21.0343 26009.9 -03510.8 -07.6874 26245.7
 10 10 2013  10 02  -21.0345 26009.7 -03510.6 -07.6870 26245.5
 10 10 2013  10 03  -21.0345 26009.5 -03510.5 -07.6867 26245.3
 10 10 2013  10 04  -21.0351 26009.7 -03510.6 -07.6869 26245.5
 10 10 2013  10 05  -21.0358 26009.9 -03510.7 -07.6871 26245.7
 10 10 2013  10 06  -21.0362 26010.0 -03510.8 -07.6873 26245.9
 10 10 2013  10 07  -21.0363 26010.1 -03510.9 -07.6875 26246.0
 10 10 2013  10 08  -21.0368 26010.5 -03511.2 -07.6879 26246.4
 10 10 2013  10 09  -21.0371 26010.7 -03511.3 -07.6881 26246.7
 10 10 2013  10 10  -21.0369 26010.8 -03511.2 -07.6880 26246.8
 10 10 2013  10 11  -21.0369 26010.8 -03511.1 -07.6877 26246.7
 10 10 2013  10 12  -21.0373 26011.0 -03511.2 -07.6878 26246.9
 10 10 2013  10 13  -21.0380 26011.2 -03511.3 -07.6881 26247.1
 10 10 2013  10 14  -21.0383 26011.6 -03511.4 -07.6881 26247.5
 10 10 2013  10 15  -21.0385 26011.9 -03511.4 -07.6881 26247.8
 10 10 2013  10 16  -21.0390 26011.8 -03511.3 -07.6877 26247.8
 10 10 2013  10 17  -21.0398 26012.1 -03511.3 -07.6878 26248.0
 10 10 2013  10 18  -21.0409 26012.5 -03511.5 -07.6881 26248.5
 10 10 2013  10 19  -21.0413 26012.6 -03511.5 -07.6879 26248.6
 10 10 2013  10 20  -21.0413 26012.9 -03511.5 -07.6880 26248.9
 10 10 2013  10 21  -21.0413 26013.1 -03511.5 -07.6880 26249.0
 10 10 2013  10 22  -21.0419 26013.5 -03511.7 -07.6882 26249.4
 10 10 2013  10 23  -21.0427 26014.1 -03511.9 -07.6885 26250.1
 10 10 2013  10 24  -21.0432 26014.6 -03512.0 -07.6886 26250.6
 10 10 2013  10 25  -21.0437 26014.9 -03512.0 -07.6884 26250.8
 10 10 2013  10 26  -21.0441 26015.1 -03511.9 -07.6881 26251.0
 10 10 2013  10 27  -21.0443 26015.3 -03511.9 -07.6880 26251.3
 10 10 2013  10 28  -21.0441 26015.2 -03511.8 -07.6878 26251.2
 10 10 2013  10 29  -21.0441 26015.3 -03511.7 -07.6877 26251.3
 10 10 2013  10 30  -21.0445 26015.7 -03511.8 -07.6878 26251.7
 10 10 2013  10 31  -21.0452 26016.0 -03511.9 -07.6878 26252.0
 10 10 2013  10 32  -21.0462 26016.3 -03511.9 -07.6877 26252.3
 10 10 2013  10 33  -21.0469 26016.5 -03511.8 -07.6875 26252.4
 10 10 2013  10 34  -21.0473 26016.7 -03511.8 -07.6874 26252.6
 10 10 2013  10 35  -21.0476 26016.8 -03511.7 -07.6872 26252.7
 10 10 2013  10 36  -21.0477 26017.1 -03511.7 -07.6871 26253.1
 10 10 2013  10 37  -21.0477 26017.6 -03511.7 -07.6871 26253.5
 10 10 2013  10 38  -21.0484 26017.8 -03511.7 -07.6870 26253.8
 10 10 2013  10 39  -21.0492 26018.3 -03511.9 -07.6871 26254.3
 10 10 2013  10 40  -21.0497 26018.7 -03511.9 -07.6871 26254.6
 10 10 2013  10 41  -21.0500 26018.6 -03511.7 -07.6867 26254.5
 10 10 2013  10 42  -21.0501 26018.9 -03511.6 -07.6863 26254.7
 10 10 2013  10 43  -21.0509 26019.4 -03511.5 -07.6861 26255.3
 10 10 2013  10 44  -21.0525 26019.7 -03511.5 -07.6859 26255.6
 10 10 2013  10 45  -21.0539 26019.7 -03511.3 -07.6855 26255.5
 10 10 2013  10 46  -21.0544 26019.4 -03511.0 -07.6849 26255.2
 10 10 2013  10 47  -21.0548 26019.1 -03510.8 -07.6845 26254.9
 10 10 2013  10 48  -21.0547 26018.8 -03510.6 -07.6843 26254.6
 10 10 2013  10 49  -21.0546 26019.1 -03510.8 -07.6845 26254.9
 10 10 2013  10 50  -21.0549 26019.5 -03510.9 -07.6847 26255.3
 10 10 2013  10 51  -21.0555 26019.8 -03511.0 -07.6849 26255.7
 10 10 2013  10 52  -21.0561 26020.0 -03511.0 -07.6847 26255.8
 10 10 2013  10 53  -21.0565 26020.3 -03510.9 -07.6844 26256.0
 10 10 2013  10 54  -21.0570 26021.0 -03510.9 -07.6842 26256.8
 10 10 2013  10 55  -21.0571 26021.5 -03510.8 -07.6839 26257.2
 10 10 2013  10 56  -21.0571 26022.1 -03510.7 -07.6836 26257.9
 10 10 2013  10 57  -21.0571 26022.6 -03510.7 -07.6833 26258.3
 10 10 2013  10 58  -21.0575 26022.8 -03510.6 -07.6830 26258.5
 10 10 2013  10 59  -21.0575 26023.2 -03510.5 -07.6828 26258.9
 10 10 2013  11 00  -21.0574 26023.7 -03510.6 -07.6828 26259.5
 10 10 2013  11 01  -21.0576 26024.5 -03510.8 -07.6829 26260.3
 10 10 2013  11 02  -21.0580 26025.5 -03510.9 -07.6830 26261.2
 10 10 2013  11 03  -21.0582 26026.4 -03511.0 -07.6829 26262.2
 10 10 2013  11 04  -21.0586 26027.5 -03511.1 -07.6827 26263.2
 10 10 2013  11 05  -21.0588 26028.3 -03510.8 -07.6818 26264.0
 10 10 2013  11 06  -21.0587 26028.8 -03510.6 -07.6813 26264.5
 10 10 2013  11 07  -21.0588 26029.3 -03510.4 -07.6807 26265.0
 10 10 2013  11 08  -21.0593 26029.8 -03510.2 -07.6801 26265.5
 10 10 2013  11 09  -21.0599 26030.3 -03510.0 -07.6795 26265.9
 10 10 2013  11 10  -21.0603 26030.7 -03509.8 -07.6790 26266.3
 10 10 2013  11 11  -21.0609 26031.1 -03509.6 -07.6784 26266.6
 10 10 2013  11 12  -21.0615 26031.3 -03509.4 -07.6779 26266.8
 10 10 2013  11 13  -21.0620 26031.4 -03509.1 -07.6774 26266.9
 10 10 2013  11 14  -21.0625 26031.7 -03509.0 -07.6769 26267.1
 10 10 2013  11 15  -21.0631 26032.0 -03508.8 -07.6764 26267.4
 10 10 2013  11 16  -21.0636 26032.2 -03508.6 -07.6760 26267.6
 10 10 2013  11 17  -21.0642 26032.5 -03508.5 -07.6756 26267.8
 10 10 2013  11 18  -21.0648 26032.7 -03508.3 -07.6753 26268.1
 10 10 2013  11 19  -21.0653 26033.0 -03508.2 -07.6749 26268.3
 10 10 2013  11 20  -21.0662 26033.2 -03508.1 -07.6746 26268.5
 10 10 2013  11 21  -21.0669 26033.1 -03507.9 -07.6742 26268.4
 10 10 2013  11 22  -21.0671 26033.2 -03507.7 -07.6738 26268.4
 10 10 2013  11 23  -21.0672 26033.2 -03507.6 -07.6735 26268.5
 10 10 2013  11 24  -21.0672 26033.3 -03507.4 -07.6731 26268.5
 10 10 2013  11 25  -21.0676 26033.5 -03507.4 -07.6730 26268.7
 10 10 2013  11 26  -21.0680 26033.8 -03507.4 -07.6729 26269.0
 10 10 2013  11 27  -21.0684 26034.0 -03507.3 -07.6728 26269.2
 10 10 2013  11 28  -21.0689 26034.2 -03507.3 -07.6726 26269.4
 10 10 2013  11 29  -21.0691 26034.4 -03507.2 -07.6723 26269.6
 10 10 2013  11 30  -21.0693 26034.6 -03507.1 -07.6721 26269.7
 10 10 2013  11 31  -21.0699 26034.7 -03507.1 -07.6719 26269.9
 10 10 2013  11 32  -21.0704 26035.0 -03507.0 -07.6718 26270.1
 10 10 2013  11 33  -21.0710 26035.2 -03507.0 -07.6716 26270.3
 10 10 2013  11 34  -21.0718 26035.5 -03507.0 -07.6716 26270.6
 10 10 2013  11 35  -21.0719 26035.9 -03507.0 -07.6715 26271.0
 10 10 2013  11 36  -21.0720 26036.1 -03506.9 -07.6712 26271.2
 10 10 2013  11 37  -21.0724 26036.5 -03506.9 -07.6711 26271.7
 10 10 2013  11 38  -21.0728 26036.9 -03506.9 -07.6709 26272.1
 10 10 2013  11 39  -21.0731 26037.5 -03506.9 -07.6707 26272.6
 10 10 2013  11 40  -21.0735 26037.7 -03506.7 -07.6704 26272.8
 10 10 2013  11 41  -21.0736 26037.9 -03506.6 -07.6700 26273.0
 10 10 2013  11 42  -21.0738 26038.5 -03506.6 -07.6698 26273.6
 10 10 2013  11 43  -21.0741 26038.9 -03506.5 -07.6696 26274.0
 10 10 2013  11 44  -21.0749 26039.4 -03506.5 -07.6694 26274.4
 10 10 2013  11 45  -21.0760 26039.5 -03506.4 -07.6690 26274.5
 10 10 2013  11 46  -21.0765 26039.6 -03506.2 -07.6687 26274.6
 10 10 2013  11 47  -21.0768 26040.2 -03506.2 -07.6685 26275.1
 10 10 2013  11 48  -21.0770 26040.4 -03506.0 -07.6681 26275.3
 10 10 2013  11 49  -21.0772 26040.3 -03505.8 -07.6676 26275.2
 10 10 2013  11 50  -21.0773 26040.1 -03505.6 -07.6673 26275.0
 10 10 2013  11 51  -21.0774 26040.4 -03505.6 -07.6672 26275.3
 10 10 2013  11 52  -21.0777 26041.0 -03505.7 -07.6672 26275.9
 10 10 2013  11 53  -21.0780 26041.4 -03505.7 -07.6671 26276.3
 10 10 2013  11 54  -21.0785 26041.8 -03505.7 -07.6669 26276.7
 10 10 2013  11 55  -21.0790 26041.7 -03505.4 -07.6664 26276.6
 10 10 2013  11 56  -21.0794 26041.9 -03505.2 -07.6659 26276.7
 10 10 2013  11 57  -21.0798 26042.1 -03505.1 -07.6656 26276.9
 10 10 2013  11 58  -21.0803 26042.5 -03505.1 -07.6654 26277.3
 10 10 2013  11 59  -21.0809 26042.8 -03505.0 -07.6652 26277.6
 10 10 2013  12 00  -21.0812 26043.4 -03505.0 -07.6650 26278.2
 10 10 2013  12 01  -21.0813 26044.3 -03505.0 -07.6648 26279.1
 10 10 2013  12 02  -21.0816 26045.1 -03505.0 -07.6646 26279.9
 10 10 2013  12 03  -21.0821 26045.8 -03505.0 -07.6643 26280.6
 10 10 2013  12 04  -21.0826 26046.3 -03504.8 -07.6638 26281.1
 10 10 2013  12 05  -21.0831 26046.6 -03504.6 -07.6633 26281.4
 10 10 2013  12 06  -21.0835 26047.1 -03504.5 -07.6628 26281.8
 10 10 2013  12 07  -21.0843 26047.5 -03504.4 -07.6624 26282.2
 10 10 2013  12 08  -21.0848 26047.6 -03504.1 -07.6617 26282.2
 10 10 2013  12 09  -21.0852 26048.1 -03503.9 -07.6613 26282.7
 10 10 2013  12 10  -21.0856 26048.2 -03503.6 -07.6605 26282.8
 10 10 2013  12 11  -21.0860 26048.4 -03503.3 -07.6599 26283.0
 10 10 2013  12 12  -21.0867 26048.4 -03503.0 -07.6592 26282.9
 10 10 2013  12 13  -21.0878 26048.3 -03502.6 -07.6585 26282.7
 10 10 2013  12 14  -21.0885 26047.8 -03502.2 -07.6577 26282.2
 10 10 2013  12 15  -21.0887 26047.4 -03501.8 -07.6569 26281.7
 10 10 2013  12 16  -21.0889 26047.0 -03501.5 -07.6563 26281.3
 10 10 2013  12 17  -21.0893 26046.7 -03501.3 -07.6560 26281.0
 10 10 2013  12 18  -21.0895 26046.5 -03501.1 -07.6556 26280.8
 10 10 2013  12 19  -21.0894 26046.5 -03501.1 -07.6556 26280.7
 10 10 2013  12 20  -21.0893 26046.6 -03501.0 -07.6554 26280.8
 10 10 2013  12 21  -21.0891 26046.7 -03501.0 -07.6554 26280.9
 10 10 2013  12 22  -21.0892 26047.1 -03501.1 -07.6554 26281.3
 10 10 2013  12 23  -21.0897 26047.5 -03501.1 -07.6554 26281.8
 10 10 2013  12 24  -21.0901 26047.9 -03501.1 -07.6552 26282.2
 10 10 2013  12 25  -21.0906 26048.6 -03501.1 -07.6551 26282.8
 10 10 2013  12 26  -21.0909 26049.4 -03501.2 -07.6550 26283.7
 10 10 2013  12 27  -21.0915 26050.1 -03501.2 -07.6547 26284.3
 10 10 2013  12 28  -21.0920 26050.6 -03501.0 -07.6543 26284.8
 10 10 2013  12 29  -21.0920 26051.0 -03500.8 -07.6538 26285.1
 10 10 2013  12 30  -21.0920 26051.3 -03500.7 -07.6533 26285.5
 10 10 2013  12 31  -21.0921 26051.8 -03500.6 -07.6530 26286.0
 10 10 2013  12 32  -21.0919 26052.3 -03500.5 -07.6526 26286.4
 10 10 2013  12 33  -21.0917 26052.9 -03500.4 -07.6522 26287.0
 10 10 2013  12 34  -21.0914 26053.7 -03500.4 -07.6520 26287.8
 10 10 2013  12 35  -21.0915 26054.6 -03500.4 -07.6518 26288.7
 10 10 2013  12 36  -21.0916 26055.6 -03500.4 -07.6516 26289.7
 10 10 2013  12 37  -21.0915 26056.8 -03500.5 -07.6513 26290.9
 10 10 2013  12 38  -21.0911 26058.1 -03500.4 -07.6509 26292.1
 10 10 2013  12 39  -21.0909 26059.2 -03500.4 -07.6503 26293.3
 10 10 2013  12 40  -21.0908 26060.1 -03500.2 -07.6497 26294.1
 10 10 2013  12 41  -21.0907 26060.9 -03500.0 -07.6490 26294.9
 10 10 2013  12 42  -21.0902 26061.4 -03499.6 -07.6481 26295.3
 10 10 2013  12 43  -21.0899 26061.9 -03499.3 -07.6473 26295.8
 10 10 2013  12 44  -21.0900 26062.4 -03499.1 -07.6467 26296.2
 10 10 2013  12 45  -21.0899 26062.5 -03498.7 -07.6458 26296.3
 10 10 2013  12 46  -21.0899 26062.6 -03498.4 -07.6451 26296.4
 10 10 2013  12 47  -21.0900 26063.1 -03498.3 -07.6447 26296.8
 10 10 2013  12 48  -21.0902 26063.5 -03498.1 -07.6443 26297.2
 10 10 2013  12 49  -21.0905 26063.7 -03497.9 -07.6438 26297.4
 10 10 2013  12 50  -21.0909 26063.9 -03497.7 -07.6432 26297.5
 10 10 2013  12 51  -21.0909 26063.9 -03497.4 -07.6425 26297.5
 10 10 2013  12 52  -21.0909 26064.0 -03497.1 -07.6420 26297.5
 10 10 2013  12 53  -21.0910 26064.0 -03496.8 -07.6413 26297.5
 10 10 2013  12 54  -21.0912 26063.9 -03496.6 -07.6408 26297.4
 10 10 2013  12 55  -21.0914 26063.9 -03496.4 -07.6403 26297.4
 10 10 2013  12 56  -21.0913 26064.0 -03496.2 -07.6399 26297.4
 10 10 2013  12 57  -21.0912 26064.1 -03496.0 -07.6395 26297.6
 10 10 2013  12 58  -21.0914 26064.3 -03495.9 -07.6393 26297.7
 10 10 2013  12 59  -21.0914 26064.4 -03495.8 -07.6390 26297.8
 10 10 2013  13 00  -21.0914 26064.8 -03495.8 -07.6388 26298.2
 10 10 2013  13 01  -21.0913 26065.0 -03495.6 -07.6385 26298.4
 10 10 2013  13 02  -21.0916 26065.1 -03495.4 -07.6380 26298.4
 10 10 2013  13 03  -21.0917 26064.9 -03495.1 -07.6374 26298.2
 10 10 2013  13 04  -21.0917 26065.0 -03494.9 -07.6369 26298.3
 10 10 2013  13 05  -21.0914 26065.2 -03494.7 -07.6365 26298.4
 10 10 2013  13 06  -21.0911 26065.8 -03494.7 -07.6362 26299.0
 10 10 2013  13 07  -21.0909 26066.0 -03494.5 -07.6357 26299.2
 10 10 2013  13 08  -21.0910 26065.9 -03494.2 -07.6350 26299.1
 10 10 2013  13 09  -21.0909 26065.9 -03493.9 -07.6344 26299.0
 10 10 2013  13 10  -21.0908 26066.2 -03493.7 -07.6339 26299.3
 10 10 2013  13 11  -21.0910 26066.1 -03493.4 -07.6333 26299.2
 10 10 2013  13 12  -21.0909 26065.8 -03493.0 -07.6325 26298.8
 10 10 2013  13 13  -21.0906 26065.9 -03492.8 -07.6321 26298.9
 10 10 2013  13 14  -21.0904 26065.8 -03492.5 -07.6315 26298.8
 10 10 2013  13 15  -21.0903 26065.9 -03492.4 -07.6312 26298.8
 10 10 2013  13 16  -21.0901 26065.9 -03492.1 -07.6307 26298.8
 10 10 2013  13 17  -21.0900 26066.2 -03492.0 -07.6303 26299.0
 10 10 2013  13 18  -21.0900 26066.3 -03491.9 -07.6300 26299.2
 10 10 2013  13 19  -21.0899 26066.6 -03491.7 -07.6295 26299.4
 10 10 2013  13 20  -21.0898 26067.0 -03491.6 -07.6291 26299.8
 10 10 2013  13 21  -21.0897 26067.5 -03491.5 -07.6287 26300.3
 10 10 2013  13 22  -21.0894 26067.8 -03491.3 -07.6282 26300.5
 10 10 2013  13 23  -21.0895 26068.0 -03491.0 -07.6277 26300.7
 10 10 2013  13 24  -21.0896 26068.1 -03490.8 -07.6271 26300.8
 10 10 2013  13 25  -21.0895 26068.3 -03490.6 -07.6266 26301.0
 10 10 2013  13 26  -21.0890 26068.6 -03490.3 -07.6260 26301.2
 10 10 2013  13 27  -21.0884 26068.8 -03490.1 -07.6254 26301.4
 10 10 2013  13 28  -21.0878 26069.2 -03490.0 -07.6250 26301.8
 10 10 2013  13 29  -21.0873 26069.4 -03489.7 -07.6245 26301.9
 10 10 2013  13 30  -21.0868 26069.6 -03489.5 -07.6239 26302.1
 10 10 2013  13 31  -21.0863 26070.2 -03489.4 -07.6236 26302.7
 10 10 2013  13 32  -21.0858 26070.9 -03489.4 -07.6233 26303.4
 10 10 2013  13 33  -21.0855 26071.5 -03489.3 -07.6228 26304.0
 10 10 2013  13 34  -21.0850 26071.9 -03489.1 -07.6223 26304.3
 10 10 2013  13 35  -21.0844 26072.3 -03488.8 -07.6216 26304.6
 10 10 2013  13 36  -21.0839 26073.0 -03488.7 -07.6213 26305.4
 10 10 2013  13 37  -21.0832 26073.7 -03488.6 -07.6208 26306.1
 10 10 2013  13 38  -21.0821 26074.4 -03488.4 -07.6202 26306.7
 10 10 2013  13 39  -21.0814 26075.0 -03488.3 -07.6197 26307.3
 10 10 2013  13 40  -21.0808 26076.0 -03488.2 -07.6193 26308.3
 10 10 2013  13 41  -21.0804 26076.8 -03488.1 -07.6188 26309.0
 10 10 2013  13 42  -21.0798 26077.6 -03487.9 -07.6181 26309.8
 10 10 2013  13 43  -21.0793 26078.1 -03487.6 -07.6173 26310.3
 10 10 2013  13 44  -21.0786 26078.3 -03487.1 -07.6162 26310.4
 10 10 2013  13 45  -21.0780 26078.2 -03486.6 -07.6152 26310.2
 10 10 2013  13 46  -21.0781 26077.5 -03486.0 -07.6140 26309.5
 10 10 2013  13 47  -21.0779 26076.9 -03485.4 -07.6129 26308.8
 10 10 2013  13 48  -21.0782 26076.9 -03485.1 -07.6123 26308.7
 10 10 2013  13 49  -21.0784 26075.9 -03484.5 -07.6114 26307.7
 10 10 2013  13 50  -21.0785 26075.2 -03484.1 -07.6106 26306.9
 10 10 2013  13 51  -21.0781 26074.1 -03483.4 -07.6093 26305.7
 10 10 2013  13 52  -21.0777 26073.9 -03483.4 -07.6096 26305.5
 10 10 2013  13 53  -21.0769 26073.8 -03483.4 -07.6096 26305.4
 10 10 2013  13 54  -21.0760 26074.2 -03483.6 -07.6098 26305.8
 10 10 2013  13 55  -21.0752 26074.5 -03483.7 -07.6098 26306.2
 10 10 2013  13 56  -21.0745 26074.9 -03483.7 -07.6099 26306.6
 10 10 2013  13 57  -21.0742 26075.6 -03483.9 -07.6101 26307.3
 10 10 2013  13 58  -21.0736 26076.3 -03484.0 -07.6101 26308.0
 10 10 2013  13 59  -21.0729 26076.9 -03484.0 -07.6099 26308.6
 10 10 2013  14 00  -21.0725 26076.8 -03483.7 -07.6092 26308.5
 10 10 2013  14 01  -21.0721 26076.8 -03483.5 -07.6088 26308.4
 10 10 2013  14 02  -21.0714 26077.0 -03483.4 -07.6085 26308.6
 10 10 2013  14 03  -21.0708 26077.3 -03483.3 -07.6082 26308.9
 10 10 2013  14 04  -21.0707 26077.5 -03483.1 -07.6078 26309.1
 10 10 2013  14 05  -21.0708 26077.3 -03482.8 -07.6072 26308.9
 10 10 2013  14 06  -21.0705 26076.8 -03482.4 -07.6065 26308.3
 10 10 2013  14 07  -21.0701 26076.3 -03482.1 -07.6059 26307.8
 10 10 2013  14 08  -21.0700 26075.8 -03481.8 -07.6055 26307.2
 10 10 2013  14 09  -21.0698 26075.2 -03481.5 -07.6051 26306.6
 10 10 2013  14 10  -21.0695 26074.6 -03481.3 -07.6048 26306.0
 10 10 2013  14 11  -21.0694 26074.4 -03481.3 -07.6048 26305.8
 10 10 2013  14 12  -21.0692 26074.0 -03481.2 -07.6046 26305.4
 10 10 2013  14 13  -21.0688 26073.5 -03481.0 -07.6043 26304.8
 10 10 2013  14 14  -21.0683 26073.2 -03480.9 -07.6042 26304.5
 10 10 2013  14 15  -21.0681 26072.9 -03480.8 -07.6042 26304.2
 10 10 2013  14 16  -21.0677 26072.7 -03480.8 -07.6042 26304.0
 10 10 2013  14 17  -21.0676 26072.6 -03480.9 -07.6044 26304.0
 10 10 2013  14 18  -21.0674 26072.2 -03480.8 -07.6044 26303.6
 10 10 2013  14 19  -21.0670 26072.0 -03480.7 -07.6042 26303.3
 10 10 2013  14 20  -21.0668 26072.1 -03480.8 -07.6043 26303.4
 10 10 2013  14 21  -21.0667 26071.9 -03480.7 -07.6043 26303.3
 10 10 2013  14 22  -21.0663 26071.9 -03480.7 -07.6042 26303.2
 10 10 2013  14 23  -21.0659 26071.8 -03480.6 -07.6039 26303.1
 10 10 2013  14 24  -21.0655 26071.8 -03480.5 -07.6038 26303.1
 10 10 2013  14 25  -21.0650 26071.4 -03480.2 -07.6034 26302.7
 10 10 2013  14 26  -21.0643 26070.7 -03479.9 -07.6029 26302.0
 10 10 2013  14 27  -21.0634 26070.2 -03479.7 -07.6026 26301.4
 10 10 2013  14 28  -21.0624 26069.8 -03479.6 -07.6025 26301.0
 10 10 2013  14 29  -21.0617 26069.4 -03479.5 -07.6023 26300.6
 10 10 2013  14 30  -21.0617 26069.5 -03479.6 -07.6026 26300.7
 10 10 2013  14 31  -21.0617 26069.6 -03479.7 -07.6027 26300.8
 10 10 2013  14 32  -21.0609 26069.2 -03479.5 -07.6024 26300.4
 10 10 2013  14 33  -21.0604 26069.1 -03479.4 -07.6023 26300.2
 10 10 2013  14 34  -21.0601 26068.9 -03479.3 -07.6022 26300.0
 10 10 2013  14 35  -21.0595 26069.0 -03479.3 -07.6021 26300.1
 10 10 2013  14 36  -21.0589 26069.2 -03479.4 -07.6022 26300.4
 10 10 2013  14 37  -21.0583 26069.4 -03479.3 -07.6020 26300.6
 10 10 2013  14 38  -21.0577 26069.6 -03479.3 -07.6020 26300.8
 10 10 2013  14 39  -21.0570 26069.3 -03479.1 -07.6016 26300.5
 10 10 2013  14 40  -21.0562 26068.8 -03478.8 -07.6011 26299.9
 10 10 2013  14 41  -21.0557 26068.2 -03478.5 -07.6006 26299.3
 10 10 2013  14 42  -21.0549 26067.5 -03478.2 -07.6002 26298.5
 10 10 2013  14 43  -21.0545 26066.8 -03478.0 -07.6000 26297.8
 10 10 2013  14 44  -21.0539 26066.2 -03477.9 -07.5998 26297.2
 10 10 2013  14 45  -21.0534 26065.6 -03477.7 -07.5997 26296.6
 10 10 2013  14 46  -21.0524 26065.2 -03477.6 -07.5995 26296.1
 10 10 2013  14 47  -21.0526 26065.1 -03477.8 -07.5999 26296.1
 10 10 2013  14 48  -21.0521 26064.9 -03477.8 -07.5999 26295.9
 10 10 2013  14 49  -21.0517 26064.9 -03477.8 -07.6000 26295.9
 10 10 2013  14 50  -21.0510 26064.8 -03477.8 -07.6000 26295.8
 10 10 2013  14 51  -21.0502 26064.4 -03477.6 -07.5998 26295.4
 10 10 2013  14 52  -21.0494 26064.2 -03477.6 -07.5997 26295.2
 10 10 2013  14 53  -21.0488 26064.4 -03477.8 -07.6000 26295.4
 10 10 2013  14 54  -21.0478 26064.4 -03477.8 -07.6000 26295.4
 10 10 2013  14 55  -21.0472 26064.1 -03477.7 -07.5999 26295.1
 10 10 2013  14 56  -21.0464 26063.6 -03477.5 -07.5996 26294.5
 10 10 2013  14 57  -21.0457 26063.1 -03477.3 -07.5994 26294.1
 10 10 2013  14 58  -21.0456 26063.0 -03477.4 -07.5996 26294.0
 10 10 2013  14 59  -21.0452 26062.8 -03477.3 -07.5996 26293.8
 10 10 2013  15 00  -21.0449 26062.0 -03477.1 -07.5992 26293.0
 10 10 2013  15 01  -21.0443 26061.5 -03476.9 -07.5991 26292.4
 10 10 2013  15 02  -21.0438 26061.0 -03476.9 -07.5991 26291.9
 10 10 2013  15 03  -21.0432 26060.6 -03476.8 -07.5991 26291.5
 10 10 2013  15 04  -21.0431 26060.3 -03476.8 -07.5992 26291.2
 10 10 2013  15 05  -21.0432 26060.2 -03476.9 -07.5994 26291.2
 10 10 2013  15 06  -21.0432 26060.1 -03477.0 -07.5996 26291.0
 10 10 2013  15 07  -21.0427 26059.8 -03476.9 -07.5995 26290.7
 10 10 2013  15 08  -21.0422 26059.9 -03476.9 -07.5996 26290.9
 10 10 2013  15 09  -21.0416 26059.6 -03476.8 -07.5994 26290.5
 10 10 2013  15 10  -21.0413 26059.3 -03476.8 -07.5994 26290.3
 10 10 2013  15 11  -21.0410 26059.0 -03476.8 -07.5995 26290.0
 10 10 2013  15 12  -21.0402 26058.3 -03476.5 -07.5992 26289.2
 10 10 2013  15 13  -21.0398 26058.3 -03476.7 -07.5995 26289.2
 10 10 2013  15 14  -21.0403 26058.2 -03476.8 -07.5998 26289.1
 10 10 2013  15 15  -21.0401 26057.9 -03476.8 -07.5998 26288.8
 10 10 2013  15 16  -21.0397 26057.7 -03476.9 -07.6000 26288.6
 10 10 2013  15 17  -21.0393 26057.3 -03476.8 -07.6001 26288.2
 10 10 2013  15 18  -21.0382 26056.8 -03476.7 -07.6000 26287.7
 10 10 2013  15 19  -21.0375 26056.0 -03476.6 -07.5999 26287.0
 10 10 2013  15 20  -21.0368 26055.6 -03476.7 -07.6002 26286.5
 10 10 2013  15 21  -21.0370 26056.1 -03477.2 -07.6013 26287.1
 10 10 2013  15 22  -21.0368 26056.5 -03477.6 -07.6020 26287.5
 10 10 2013  15 23  -21.0367 26056.7 -03477.8 -07.6024 26287.8
 10 10 2013  15 24  -21.0371 26056.8 -03478.0 -07.6028 26287.9
 10 10 2013  15 25  -21.0378 26056.6 -03478.1 -07.6031 26287.7
 10 10 2013  15 26  -21.0380 26056.6 -03478.3 -07.6034 26287.8
 10 10 2013  15 27  -21.0379 26056.3 -03478.3 -07.6035 26287.5
 10 10 2013  15 28  -21.0373 26056.0 -03478.3 -07.6035 26287.1
 10 10 2013  15 29  -21.0370 26055.7 -03478.4 -07.6039 26286.9
 10 10 2013  15 30  -21.0368 26055.5 -03478.5 -07.6041 26286.7
 10 10 2013  15 31  -21.0371 26055.6 -03478.8 -07.6048 26286.8
 10 10 2013  15 32  -21.0372 26055.6 -03479.0 -07.6053 26286.8
 10 10 2013  15 33  -21.0369 26055.4 -03479.0 -07.6054 26286.6
 10 10 2013  15 34  -21.0367 26054.9 -03479.0 -07.6055 26286.2
 10 10 2013  15 35  -21.0366 26054.2 -03479.0 -07.6056 26285.5
 10 10 2013  15 36  -21.0364 26054.0 -03479.2 -07.6061 26285.3
 10 10 2013  15 37  -21.0361 26053.9 -03479.4 -07.6065 26285.2
 10 10 2013  15 38  -21.0360 26053.3 -03479.4 -07.6069 26284.7
 10 10 2013  15 39  -21.0359 26052.9 -03479.5 -07.6071 26284.2
 10 10 2013  15 40  -21.0358 26052.6 -03479.8 -07.6077 26284.0
 10 10 2013  15 41  -21.0359 26052.2 -03479.9 -07.6081 26283.5
 10 10 2013  15 42  -21.0364 26052.0 -03480.1 -07.6086 26283.4
 10 10 2013  15 43  -21.0367 26051.9 -03480.4 -07.6093 26283.4
 10 10 2013  15 44  -21.0369 26051.6 -03480.5 -07.6097 26283.1
 10 10 2013  15 45  -21.0371 26051.0 -03480.6 -07.6100 26282.4
 10 10 2013  15 46  -21.0377 26050.4 -03480.7 -07.6104 26281.9
 10 10 2013  15 47  -21.0380 26049.9 -03480.8 -07.6108 26281.4
 10 10 2013  15 48  -21.0383 26049.3 -03480.9 -07.6112 26280.9
 10 10 2013  15 49  -21.0386 26049.1 -03481.2 -07.6118 26280.6
 10 10 2013  15 50  -21.0391 26049.0 -03481.4 -07.6125 26280.6
 10 10 2013  15 51  -21.0394 26048.6 -03481.6 -07.6129 26280.2
 10 10 2013  15 52  -21.0396 26047.9 -03481.7 -07.6133 26279.6
 10 10 2013  15 53  -21.0393 26047.3 -03481.8 -07.6137 26279.0
 10 10 2013  15 54  -21.0394 26047.0 -03482.0 -07.6143 26278.7
 10 10 2013  15 55  -21.0398 26047.0 -03482.4 -07.6150 26278.8
 10 10 2013  15 56  -21.0404 26047.2 -03482.8 -07.6159 26279.0
 10 10 2013  15 57  -21.0407 26047.1 -03483.0 -07.6164 26278.9
 10 10 2013  15 58  -21.0409 26046.7 -03483.1 -07.6167 26278.5
 10 10 2013  15 59  -21.0414 26046.4 -03483.3 -07.6173 26278.3
 10 10 2013  16 00  -21.0417 26046.1 -03483.5 -07.6177 26278.0
 10 10 2013  16 01  -21.0423 26046.1 -03483.8 -07.6184 26278.1
 10 10 2013  16 02  -21.0430 26045.9 -03484.0 -07.6190 26277.9
 10 10 2013  16 03  -21.0433 26045.6 -03484.2 -07.6194 26277.6
 10 10 2013  16 04  -21.0438 26045.3 -03484.4 -07.6199 26277.4
 10 10 2013  16 05  -21.0444 26045.1 -03484.6 -07.6204 26277.2
 10 10 2013  16 06  -21.0450 26045.1 -03484.8 -07.6209 26277.2
 10 10 2013  16 07  -21.0455 26044.8 -03485.0 -07.6213 26276.9
 10 10 2013  16 08  -21.0459 26044.4 -03485.1 -07.6216 26276.5
 10 10 2013  16 09  -21.0464 26044.3 -03485.4 -07.6222 26276.5
 10 10 2013  16 10  -21.0470 26044.5 -03485.7 -07.6229 26276.7
 10 10 2013  16 11  -21.0473 26044.5 -03485.9 -07.6235 26276.7
 10 10 2013  16 12  -21.0476 26044.4 -03486.1 -07.6239 26276.7
 10 10 2013  16 13  -21.0482 26044.7 -03486.4 -07.6245 26277.0
 10 10 2013  16 14  -21.0485 26045.0 -03486.7 -07.6250 26277.3
 10 10 2013  16 15  -21.0490 26045.3 -03487.0 -07.6256 26277.7
 10 10 2013  16 16  -21.0492 26045.0 -03487.1 -07.6257 26277.4
 10 10 2013  16 17  -21.0492 26044.7 -03487.1 -07.6259 26277.1
 10 10 2013  16 18  -21.0495 26044.2 -03487.1 -07.6261 26276.6
 10 10 2013  16 19  -21.0497 26043.7 -03487.1 -07.6263 26276.1
 10 10 2013  16 20  -21.0501 26043.6 -03487.3 -07.6267 26276.0
 10 10 2013  16 21  -21.0504 26043.1 -03487.3 -07.6268 26275.6
 10 10 2013  16 22  -21.0506 26042.8 -03487.3 -07.6270 26275.3
 10 10 2013  16 23  -21.0510 26042.3 -03487.3 -07.6271 26274.7
 10 10 2013  16 24  -21.0513 26041.9 -03487.4 -07.6274 26274.4
 10 10 2013  16 25  -21.0516 26041.6 -03487.5 -07.6276 26274.1
 10 10 2013  16 26  -21.0521 26041.0 -03487.4 -07.6277 26273.5
 10 10 2013  16 27  -21.0526 26040.5 -03487.5 -07.6279 26273.0
 10 10 2013  16 28  -21.0532 26040.2 -03487.6 -07.6282 26272.8
 10 10 2013  16 29  -21.0539 26039.9 -03487.7 -07.6285 26272.5
 10 10 2013  16 30  -21.0548 26039.7 -03487.8 -07.6288 26272.3
 10 10 2013  16 31  -21.0554 26039.5 -03487.8 -07.6290 26272.1
 10 10 2013  16 32  -21.0558 26039.1 -03487.8 -07.6290 26271.7
 10 10 2013  16 33  -21.0561 26039.0 -03487.9 -07.6293 26271.6
 10 10 2013  16 34  -21.0566 26039.1 -03488.1 -07.6296 26271.7
 10 10 2013  16 35  -21.0570 26039.4 -03488.2 -07.6299 26272.0
 10 10 2013  16 36  -21.0576 26039.6 -03488.4 -07.6302 26272.3
 10 10 2013  16 37  -21.0579 26039.8 -03488.5 -07.6304 26272.5
 10 10 2013  16 38  -21.0583 26039.8 -03488.5 -07.6304 26272.5
 10 10 2013  16 39  -21.0590 26039.9 -03488.6 -07.6305 26272.5
 10 10 2013  16 40  -21.0595 26039.9 -03488.6 -07.6306 26272.5
 10 10 2013  16 41  -21.0600 26039.8 -03488.6 -07.6305 26272.4
 10 10 2013  16 42  -21.0603 26039.5 -03488.5 -07.6305 26272.2
 10 10 2013  16 43  -21.0606 26039.3 -03488.5 -07.6305 26271.9
 10 10 2013  16 44  -21.0612 26039.1 -03488.5 -07.6306 26271.7
 10 10 2013  16 45  -21.0618 26039.0 -03488.5 -07.6306 26271.7
 10 10 2013  16 46  -21.0625 26038.9 -03488.6 -07.6308 26271.6
 10 10 2013  16 47  -21.0633 26038.5 -03488.5 -07.6308 26271.2
 10 10 2013  16 48  -21.0640 26038.2 -03488.5 -07.6308 26270.9
 10 10 2013  16 49  -21.0648 26038.1 -03488.5 -07.6309 26270.8
 10 10 2013  16 50  -21.0658 26038.0 -03488.6 -07.6311 26270.6
 10 10 2013  16 51  -21.0665 26037.7 -03488.6 -07.6311 26270.4
 10 10 2013  16 52  -21.0672 26037.7 -03488.6 -07.6312 26270.4
 10 10 2013  16 53  -21.0680 26037.6 -03488.7 -07.6313 26270.3
 10 10 2013  16 54  -21.0685 26037.6 -03488.7 -07.6313 26270.3
 10 10 2013  16 55  -21.0691 26037.4 -03488.6 -07.6313 26270.1
 10 10 2013  16 56  -21.0696 26037.0 -03488.5 -07.6311 26269.7
 10 10 2013  16 57  -21.0701 26036.8 -03488.4 -07.6310 26269.5
 10 10 2013  16 58  -21.0705 26036.5 -03488.3 -07.6309 26269.2
 10 10 2013  16 59  -21.0710 26036.3 -03488.2 -07.6308 26268.9
 10 10 2013  17 00  -21.0715 26036.3 -03488.2 -07.6308 26268.9
 10 10 2013  17 01  -21.0723 26036.3 -03488.2 -07.6308 26268.9
 10 10 2013  17 02  -21.0727 26035.9 -03488.1 -07.6305 26268.5
 10 10 2013  17 03  -21.0729 26035.5 -03487.8 -07.6302 26268.1
 10 10 2013  17 04  -21.0733 26035.4 -03487.8 -07.6301 26268.0
 10 10 2013  17 05  -21.0739 26035.5 -03487.8 -07.6301 26268.0
 10 10 2013  17 06  -21.0742 26035.6 -03487.7 -07.6299 26268.2
 10 10 2013  17 07  -21.0748 26035.6 -03487.6 -07.6297 26268.1
 10 10 2013  17 08  -21.0753 26035.5 -03487.5 -07.6294 26268.1
 10 10 2013  17 09  -21.0755 26035.2 -03487.3 -07.6290 26267.8
 10 10 2013  17 10  -21.0757 26035.0 -03487.1 -07.6286 26267.5
 10 10 2013  17 11  -21.0762 26034.8 -03486.9 -07.6283 26267.2
 10 10 2013  17 12  -21.0766 26034.6 -03486.7 -07.6280 26267.0
 10 10 2013  17 13  -21.0768 26034.6 -03486.6 -07.6278 26267.0
 10 10 2013  17 14  -21.0772 26034.5 -03486.5 -07.6275 26266.9
 10 10 2013  17 15  -21.0774 26034.4 -03486.3 -07.6272 26266.8
 10 10 2013  17 16  -21.0777 26034.3 -03486.2 -07.6270 26266.7
 10 10 2013  17 17  -21.0777 26034.1 -03486.0 -07.6266 26266.5
 10 10 2013  17 18  -21.0779 26034.1 -03485.9 -07.6263 26266.4
 10 10 2013  17 19  -21.0781 26034.1 -03485.8 -07.6261 26266.4
 10 10 2013  17 20  -21.0781 26033.9 -03485.6 -07.6258 26266.2
 10 10 2013  17 21  -21.0782 26033.9 -03485.5 -07.6255 26266.2
 10 10 2013  17 22  -21.0783 26033.8 -03485.3 -07.6252 26266.1
 10 10 2013  17 23  -21.0784 26033.8 -03485.3 -07.6251 26266.1
 10 10 2013  17 24  -21.0785 26033.8 -03485.1 -07.6248 26266.0
 10 10 2013  17 25  -21.0787 26033.4 -03484.9 -07.6243 26265.6
 10 10 2013  17 26  -21.0790 26033.1 -03484.6 -07.6239 26265.2
 10 10 2013  17 27  -21.0792 26032.9 -03484.4 -07.6236 26265.0
 10 10 2013  17 28  -21.0794 26032.2 -03484.1 -07.6230 26264.3
 10 10 2013  17 29  -21.0798 26031.7 -03483.8 -07.6226 26263.8
 10 10 2013  17 30  -21.0803 26031.4 -03483.7 -07.6224 26263.5
 10 10 2013  17 31  -21.0806 26031.0 -03483.5 -07.6221 26263.0
 10 10 2013  17 32  -21.0809 26030.6 -03483.2 -07.6216 26262.6
 10 10 2013  17 33  -21.0812 26030.4 -03483.1 -07.6214 26262.4
 10 10 2013  17 34  -21.0813 26030.0 -03482.9 -07.6211 26262.0
 10 10 2013  17 35  -21.0814 26029.9 -03482.8 -07.6210 26261.8
 10 10 2013  17 36  -21.0817 26030.1 -03482.8 -07.6209 26262.1
 10 10 2013  17 37  -21.0818 26030.2 -03482.8 -07.6208 26262.2
 10 10 2013  17 38  -21.0818 26030.4 -03482.7 -07.6206 26262.3
 10 10 2013  17 39  -21.0815 26030.7 -03482.7 -07.6205 26262.6
 10 10 2013  17 40  -21.0813 26030.7 -03482.6 -07.6203 26262.6
 10 10 2013  17 41  -21.0810 26030.7 -03482.5 -07.6201 26262.6
 10 10 2013  17 42  -21.0808 26030.9 -03482.5 -07.6200 26262.8
 10 10 2013  17 43  -21.0805 26030.9 -03482.4 -07.6197 26262.8
 10 10 2013  17 44  -21.0804 26030.9 -03482.3 -07.6195 26262.8
 10 10 2013  17 45  -21.0801 26031.1 -03482.2 -07.6193 26263.0
 10 10 2013  17 46  -21.0797 26031.2 -03482.2 -07.6193 26263.1
 10 10 2013  17 47  -21.0795 26031.2 -03482.1 -07.6191 26263.1
 10 10 2013  17 48  -21.0791 26031.2 -03482.1 -07.6190 26263.0
 10 10 2013  17 49  -21.0789 26031.0 -03482.0 -07.6189 26262.9
 10 10 2013  17 50  -21.0786 26030.9 -03481.9 -07.6187 26262.7
 10 10 2013  17 51  -21.0784 26030.7 -03481.8 -07.6186 26262.5
 10 10 2013  17 52  -21.0781 26030.5 -03481.8 -07.6185 26262.3
 10 10 2013  17 53  -21.0779 26030.3 -03481.7 -07.6184 26262.1
 10 10 2013  17 54  -21.0775 26030.0 -03481.6 -07.6184 26261.9
 10 10 2013  17 55  -21.0770 26029.8 -03481.6 -07.6183 26261.6
 10 10 2013  17 56  -21.0765 26029.5 -03481.5 -07.6182 26261.3
 10 10 2013  17 57  -21.0762 26029.4 -03481.6 -07.6183 26261.2
 10 10 2013  17 58  -21.0759 26029.3 -03481.6 -07.6184 26261.1
 10 10 2013  17 59  -21.0754 26029.2 -03481.6 -07.6184 26261.0
 10 10 2013  18 00  -21.0752 26029.2 -03481.6 -07.6186 26261.0
 10 10 2013  18 01  -21.0750 26029.1 -03481.7 -07.6187 26261.0
 10 10 2013  18 02  -21.0745 26029.0 -03481.7 -07.6187 26260.9
 10 10 2013  18 03  -21.0742 26029.0 -03481.7 -07.6187 26260.8
 10 10 2013  18 04  -21.0740 26028.9 -03481.7 -07.6187 26260.8
 10 10 2013  18 05  -21.0736 26029.2 -03481.8 -07.6189 26261.0
 10 10 2013  18 06  -21.0732 26029.4 -03481.9 -07.6191 26261.2
 10 10 2013  18 07  -21.0729 26029.3 -03481.9 -07.6191 26261.1
 10 10 2013  18 08  -21.0728 26029.5 -03482.0 -07.6192 26261.4
 10 10 2013  18 09  -21.0727 26029.8 -03482.1 -07.6194 26261.6
 10 10 2013  18 10  -21.0724 26029.7 -03482.0 -07.6193 26261.6
 10 10 2013  18 11  -21.0722 26029.7 -03482.1 -07.6193 26261.6
 10 10 2013  18 12  -21.0719 26029.7 -03482.0 -07.6193 26261.5
 10 10 2013  18 13  -21.0716 26029.5 -03481.9 -07.6192 26261.3
 10 10 2013  18 14  -21.0714 26029.3 -03481.9 -07.6191 26261.2
 10 10 2013  18 15  -21.0714 26029.1 -03481.8 -07.6190 26260.9
 10 10 2013  18 16  -21.0714 26028.9 -03481.8 -07.6191 26260.7
 10 10 2013  18 17  -21.0711 26028.7 -03481.8 -07.6191 26260.5
 10 10 2013  18 18  -21.0708 26028.4 -03481.7 -07.6189 26260.2
 10 10 2013  18 19  -21.0708 26028.4 -03481.7 -07.6190 26260.2
 10 10 2013  18 20  -21.0706 26028.3 -03481.8 -07.6191 26260.1
 10 10 2013  18 21  -21.0705 26028.0 -03481.7 -07.6191 26259.9
 10 10 2013  18 22  -21.0704 26027.8 -03481.7 -07.6191 26259.6
 10 10 2013  18 23  -21.0704 26027.5 -03481.6 -07.6191 26259.3
 10 10 2013  18 24  -21.0704 26027.2 -03481.6 -07.6191 26259.0
 10 10 2013  18 25  -21.0702 26027.0 -03481.6 -07.6192 26258.8
 10 10 2013  18 26  -21.0701 26026.8 -03481.6 -07.6192 26258.6
 10 10 2013  18 27  -21.0704 26026.5 -03481.6 -07.6192 26258.3
 10 10 2013  18 28  -21.0705 26026.3 -03481.6 -07.6193 26258.2
 10 10 2013  18 29  -21.0706 26026.2 -03481.6 -07.6194 26258.0
 10 10 2013  18 30  -21.0707 26025.9 -03481.6 -07.6194 26257.8
 10 10 2013  18 31  -21.0706 26025.8 -03481.5 -07.6193 26257.6
 10 10 2013  18 32  -21.0707 26025.6 -03481.5 -07.6193 26257.4
 10 10 2013  18 33  -21.0706 26025.4 -03481.5 -07.6194 26257.3
 10 10 2013  18 34  -21.0705 26025.3 -03481.5 -07.6193 26257.1
 10 10 2013  18 35  -21.0705 26025.2 -03481.4 -07.6193 26257.0
 10 10 2013  18 36  -21.0706 26025.2 -03481.4 -07.6193 26257.0
 10 10 2013  18 37  -21.0706 26025.1 -03481.4 -07.6193 26257.0
 10 10 2013  18 38  -21.0706 26024.9 -03481.3 -07.6191 26256.7
 10 10 2013  18 39  -21.0706 26024.7 -03481.2 -07.6190 26256.5
 10 10 2013  18 40  -21.0706 26024.5 -03481.2 -07.6189 26256.3
 10 10 2013  18 41  -21.0705 26024.4 -03481.1 -07.6188 26256.2
 10 10 2013  18 42  -21.0705 26024.2 -03481.1 -07.6188 26256.0
 10 10 2013  18 43  -21.0705 26023.9 -03481.0 -07.6188 26255.7
 10 10 2013  18 44  -21.0706 26023.8 -03481.0 -07.6188 26255.6
 10 10 2013  18 45  -21.0705 26023.6 -03481.0 -07.6188 26255.4
 10 10 2013  18 46  -21.0705 26023.5 -03481.0 -07.6189 26255.3
 10 10 2013  18 47  -21.0703 26023.4 -03481.0 -07.6190 26255.1
 10 10 2013  18 48  -21.0702 26023.3 -03481.1 -07.6190 26255.1
 10 10 2013  18 49  -21.0702 26023.3 -03481.1 -07.6192 26255.1
 10 10 2013  18 50  -21.0700 26023.1 -03481.2 -07.6193 26255.0
 10 10 2013  18 51  -21.0700 26023.1 -03481.3 -07.6195 26255.0
 10 10 2013  18 52  -21.0702 26023.1 -03481.4 -07.6197 26254.9
 10 10 2013  18 53  -21.0702 26022.9 -03481.4 -07.6199 26254.8
 10 10 2013  18 54  -21.0701 26022.7 -03481.4 -07.6199 26254.6
 10 10 2013  18 55  -21.0701 26022.6 -03481.5 -07.6201 26254.4
 10 10 2013  18 56  -21.0700 26022.5 -03481.6 -07.6203 26254.4
 10 10 2013  18 57  -21.0699 26022.3 -03481.6 -07.6205 26254.1
 10 10 2013  18 58  -21.0699 26022.1 -03481.6 -07.6206 26253.9
 10 10 2013  18 59  -21.0699 26022.0 -03481.7 -07.6207 26253.8
 10 10 2013  19 00  -21.0701 26022.0 -03481.8 -07.6210 26253.9
 10 10 2013  19 01  -21.0703 26021.9 -03481.9 -07.6212 26253.8
 10 10 2013  19 02  -21.0705 26021.8 -03481.9 -07.6213 26253.7
 10 10 2013  19 03  -21.0707 26021.6 -03482.0 -07.6215 26253.6
 10 10 2013  19 04  -21.0710 26021.6 -03482.1 -07.6217 26253.6
 10 10 2013  19 05  -21.0713 26021.6 -03482.2 -07.6219 26253.5
 10 10 2013  19 06  -21.0713 26021.4 -03482.1 -07.6219 26253.4
 10 10 2013  19 07  -21.0713 26021.4 -03482.2 -07.6221 26253.4
 10 10 2013  19 08  -21.0715 26021.3 -03482.3 -07.6222 26253.3
 10 10 2013  19 09  -21.0716 26021.4 -03482.4 -07.6226 26253.4
 10 10 2013  19 10  -21.0717 26021.5 -03482.5 -07.6228 26253.5
 10 10 2013  19 11  -21.0715 26021.5 -03482.6 -07.6229 26253.5
 10 10 2013  19 12  -21.0715 26021.6 -03482.7 -07.6231 26253.6
 10 10 2013  19 13  -21.0715 26021.6 -03482.8 -07.6232 26253.7
 10 10 2013  19 14  -21.0714 26021.7 -03482.8 -07.6233 26253.8
 10 10 2013  19 15  -21.0713 26021.8 -03482.9 -07.6235 26253.9
 10 10 2013  19 16  -21.0714 26021.8 -03482.9 -07.6236 26253.8
 10 10 2013  19 17  -21.0713 26021.7 -03483.0 -07.6236 26253.8
 10 10 2013  19 18  -21.0712 26021.6 -03482.9 -07.6236 26253.6
 10 10 2013  19 19  -21.0708 26021.5 -03482.9 -07.6236 26253.5
 10 10 2013  19 20  -21.0705 26021.3 -03482.9 -07.6236 26253.3
 10 10 2013  19 21  -21.0702 26021.1 -03482.9 -07.6237 26253.1
 10 10 2013  19 22  -21.0699 26021.0 -03483.0 -07.6238 26253.1
 10 10 2013  19 23  -21.0697 26020.9 -03483.0 -07.6238 26253.0
 10 10 2013  19 24  -21.0695 26020.8 -03483.0 -07.6240 26252.8
 10 10 2013  19 25  -21.0693 26020.7 -03483.1 -07.6241 26252.8
 10 10 2013  19 26  -21.0691 26020.6 -03483.2 -07.6243 26252.7
 10 10 2013  19 27  -21.0690 26020.5 -03483.2 -07.6245 26252.6
 10 10 2013  19 28  -21.0689 26020.5 -03483.3 -07.6247 26252.6
 10 10 2013  19 29  -21.0686 26020.3 -03483.3 -07.6248 26252.5
 10 10 2013  19 30  -21.0684 26020.3 -03483.4 -07.6250 26252.4
 10 10 2013  19 31  -21.0684 26020.2 -03483.5 -07.6253 26252.4
 10 10 2013  19 32  -21.0682 26020.1 -03483.6 -07.6254 26252.2
 10 10 2013  19 33  -21.0681 26020.0 -03483.6 -07.6255 26252.2
 10 10 2013  19 34  -21.0680 26020.1 -03483.7 -07.6258 26252.3
 10 10 2013  19 35  -21.0680 26020.1 -03483.9 -07.6260 26252.3
 10 10 2013  19 36  -21.0679 26020.2 -03484.0 -07.6262 26252.4
 10 10 2013  19 37  -21.0679 26020.5 -03484.1 -07.6265 26252.7
 10 10 2013  19 38  -21.0680 26020.6 -03484.3 -07.6267 26252.8
 10 10 2013  19 39  -21.0678 26020.7 -03484.4 -07.6270 26253.0
 10 10 2013  19 40  -21.0672 26020.9 -03484.4 -07.6269 26253.2
 10 10 2013  19 41  -21.0663 26021.1 -03484.3 -07.6266 26253.3
 10 10 2013  19 42  -21.0660 26021.1 -03484.3 -07.6268 26253.3
 10 10 2013  19 43  -21.0657 26021.2 -03484.5 -07.6270 26253.4
 10 10 2013  19 44  -21.0653 26021.1 -03484.5 -07.6271 26253.3
 10 10 2013  19 45  -21.0653 26021.0 -03484.6 -07.6273 26253.3
 10 10 2013  19 46  -21.0650 26021.0 -03484.6 -07.6275 26253.3
 10 10 2013  19 47  -21.0648 26021.0 -03484.7 -07.6276 26253.3
 10 10 2013  19 48  -21.0645 26020.9 -03484.7 -07.6276 26253.2
 10 10 2013  19 49  -21.0641 26020.9 -03484.7 -07.6276 26253.2
 10 10 2013  19 50  -21.0640 26020.9 -03484.8 -07.6279 26253.2
 10 10 2013  19 51  -21.0637 26020.9 -03484.9 -07.6280 26253.2
 10 10 2013  19 52  -21.0647 26020.8 -03485.0 -07.6284 26253.1
 10 10 2013  19 53  -21.0640 26020.7 -03485.2 -07.6287 26253.0
 10 10 2013  19 54  -21.0638 26020.6 -03485.2 -07.6288 26253.0
 10 10 2013  19 55  -21.0634 26020.5 -03485.3 -07.6289 26252.9
 10 10 2013  19 56  -21.0629 26020.4 -03485.3 -07.6291 26252.8
 10 10 2013  19 57  -21.0625 26020.3 -03485.3 -07.6291 26252.7
 10 10 2013  19 58  -21.0620 26020.2 -03485.4 -07.6292 26252.6
 10 10 2013  19 59  -21.0616 26020.3 -03485.4 -07.6294 26252.7
 10 10 2013  20 00  -21.0614 26020.2 -03485.5 -07.6296 26252.7
 10 10 2013  20 01  -21.0611 26019.9 -03485.5 -07.6297 26252.4
 10 10 2013  20 02  -21.0606 26020.0 -03485.6 -07.6298 26252.4
 10 10 2013  20 03  -21.0601 26020.0 -03485.7 -07.6300 26252.4
 10 10 2013  20 04  -21.0597 26019.8 -03485.7 -07.6301 26252.2
 10 10 2013  20 05  -21.0594 26019.7 -03485.8 -07.6302 26252.2
 10 10 2013  20 06  -21.0590 26019.7 -03485.9 -07.6304 26252.2
 10 10 2013  20 07  -21.0586 26019.7 -03485.9 -07.6306 26252.1
 10 10 2013  20 08  -21.0581 26019.6 -03486.0 -07.6308 26252.1
 10 10 2013  20 09  -21.0576 26019.6 -03486.1 -07.6310 26252.1
 10 10 2013  20 10  -21.0572 26019.7 -03486.2 -07.6312 26252.2
 10 10 2013  20 11  -21.0568 26019.7 -03486.3 -07.6314 26252.2
 10 10 2013  20 12  -21.0563 26019.7 -03486.4 -07.6317 26252.2
 10 10 2013  20 13  -21.0557 26019.7 -03486.5 -07.6320 26252.2
 10 10 2013  20 14  -21.0552 26019.5 -03486.6 -07.6321 26252.1
 10 10 2013  20 15  -21.0547 26019.4 -03486.7 -07.6324 26252.0
 10 10 2013  20 16  -21.0543 26019.4 -03486.8 -07.6326 26252.0
 10 10 2013  20 17  -21.0537 26019.3 -03486.9 -07.6328 26251.9
 10 10 2013  20 18  -21.0533 26019.1 -03486.9 -07.6330 26251.7
 10 10 2013  20 19  -21.0528 26018.9 -03487.0 -07.6331 26251.5
 10 10 2013  20 20  -21.0524 26018.7 -03487.0 -07.6332 26251.3
 10 10 2013  20 21  -21.0520 26018.6 -03487.0 -07.6333 26251.3
 10 10 2013  20 22  -21.0514 26018.7 -03487.2 -07.6336 26251.3
 10 10 2013  20 23  -21.0510 26018.6 -03487.2 -07.6338 26251.2
 10 10 2013  20 24  -21.0505 26018.6 -03487.3 -07.6339 26251.3
 10 10 2013  20 25  -21.0501 26018.6 -03487.4 -07.6341 26251.2
 10 10 2013  20 26  -21.0496 26018.4 -03487.5 -07.6343 26251.1
 10 10 2013  20 27  -21.0492 26018.3 -03487.5 -07.6344 26251.0
 10 10 2013  20 28  -21.0487 26018.1 -03487.6 -07.6346 26250.8
 10 10 2013  20 29  -21.0481 26018.1 -03487.6 -07.6347 26250.8
 10 10 2013  20 30  -21.0476 26018.1 -03487.7 -07.6350 26250.8
 10 10 2013  20 31  -21.0470 26018.0 -03487.8 -07.6352 26250.8
 10 10 2013  20 32  -21.0464 26017.9 -03487.9 -07.6353 26250.6
 10 10 2013  20 33  -21.0459 26017.8 -03488.0 -07.6355 26250.5
 10 10 2013  20 34  -21.0454 26017.7 -03488.1 -07.6358 26250.5
 10 10 2013  20 35  -21.0450 26017.7 -03488.1 -07.6360 26250.5
 10 10 2013  20 36  -21.0445 26017.7 -03488.2 -07.6362 26250.5
 10 10 2013  20 37  -21.0440 26017.6 -03488.3 -07.6364 26250.5
 10 10 2013  20 38  -21.0435 26017.6 -03488.4 -07.6366 26250.4
 10 10 2013  20 39  -21.0429 26017.5 -03488.5 -07.6368 26250.3
 10 10 2013  20 40  -21.0425 26017.5 -03488.6 -07.6371 26250.4
 10 10 2013  20 41  -21.0420 26017.4 -03488.7 -07.6374 26250.3
 10 10 2013  20 42  -21.0415 26017.2 -03488.8 -07.6375 26250.1
 10 10 2013  20 43  -21.0411 26017.2 -03488.9 -07.6377 26250.1
 10 10 2013  20 44  -21.0407 26017.1 -03489.0 -07.6380 26250.0
 10 10 2013  20 45  -21.0402 26017.0 -03489.0 -07.6381 26249.9
 10 10 2013  20 46  -21.0400 26016.7 -03489.0 -07.6381 26249.6
 10 10 2013  20 47  -21.0396 26016.5 -03489.0 -07.6382 26249.4
 10 10 2013  20 48  -21.0394 26016.3 -03489.0 -07.6383 26249.2
 10 10 2013  20 49  -21.0392 26015.9 -03489.0 -07.6383 26248.8
 10 10 2013  20 50  -21.0389 26015.7 -03488.9 -07.6382 26248.6
 10 10 2013  20 51  -21.0385 26015.4 -03488.9 -07.6383 26248.4
 10 10 2013  20 52  -21.0380 26015.1 -03488.9 -07.6383 26248.0
 10 10 2013  20 53  -21.0376 26014.7 -03488.8 -07.6383 26247.6
 10 10 2013  20 54  -21.0374 26014.3 -03488.7 -07.6382 26247.2
 10 10 2013  20 55  -21.0373 26013.9 -03488.7 -07.6383 26246.8
 10 10 2013  20 56  -21.0371 26013.6 -03488.7 -07.6384 26246.5
 10 10 2013  20 57  -21.0371 26013.2 -03488.7 -07.6386 26246.1
 10 10 2013  20 58  -21.0371 26012.9 -03488.8 -07.6388 26245.9
 10 10 2013  20 59  -21.0369 26012.7 -03488.8 -07.6389 26245.6
 10 10 2013  21 00  -21.0368 26012.5 -03488.9 -07.6392 26245.5
 10 10 2013  21 01  -21.0366 26012.3 -03488.9 -07.6391 26245.3
 10 10 2013  21 02  -21.0362 26012.4 -03489.2 -07.6397 26245.3
 10 10 2013  21 03  -21.0360 26012.4 -03489.4 -07.6403 26245.4
 10 10 2013  21 04  -21.0358 26012.5 -03489.7 -07.6408 26245.5
 10 10 2013  21 05  -21.0356 26012.5 -03489.9 -07.6412 26245.6
 10 10 2013  21 06  -21.0356 26012.5 -03490.0 -07.6416 26245.6
 10 10 2013  21 07  -21.0356 26012.5 -03490.2 -07.6420 26245.6
 10 10 2013  21 08  -21.0355 26012.5 -03490.4 -07.6423 26245.6
 10 10 2013  21 09  -21.0354 26012.4 -03490.5 -07.6425 26245.5
 10 10 2013  21 10  -21.0353 26012.3 -03490.5 -07.6427 26245.5
 10 10 2013  21 11  -21.0352 26012.2 -03490.6 -07.6428 26245.3
 10 10 2013  21 12  -21.0350 26012.2 -03490.6 -07.6429 26245.4
 10 10 2013  21 13  -21.0350 26012.1 -03490.8 -07.6433 26245.3
 10 10 2013  21 14  -21.0348 26012.1 -03490.9 -07.6435 26245.3
 10 10 2013  21 15  -21.0346 26012.0 -03490.9 -07.6437 26245.2
 10 10 2013  21 16  -21.0345 26012.2 -03491.2 -07.6441 26245.5
 10 10 2013  21 17  -21.0343 26012.3 -03491.4 -07.6445 26245.6
 10 10 2013  21 18  -21.0344 26012.3 -03491.5 -07.6447 26245.6
 10 10 2013  21 19  -21.0344 26012.4 -03491.6 -07.6450 26245.7
 10 10 2013  21 20  -21.0345 26012.4 -03491.7 -07.6453 26245.7
 10 10 2013  21 21  -21.0346 26012.4 -03491.8 -07.6454 26245.7
 10 10 2013  21 22  -21.0348 26012.4 -03491.9 -07.6456 26245.7
 10 10 2013  21 23  -21.0350 26012.3 -03491.9 -07.6457 26245.7
 10 10 2013  21 24  -21.0351 26012.2 -03491.9 -07.6458 26245.6
 10 10 2013  21 25  -21.0351 26012.2 -03492.0 -07.6459 26245.5
 10 10 2013  21 26  -21.0351 26012.1 -03492.0 -07.6459 26245.4
 10 10 2013  21 27  -21.0352 26011.9 -03492.0 -07.6460 26245.3
 10 10 2013  21 28  -21.0353 26011.9 -03492.0 -07.6461 26245.2
 10 10 2013  21 29  -21.0354 26011.7 -03492.0 -07.6461 26245.0
 10 10 2013  21 30  -21.0354 26011.5 -03492.0 -07.6461 26244.8
 10 10 2013  21 31  -21.0352 26011.3 -03492.0 -07.6462 26244.7
 10 10 2013  21 32  -21.0352 26011.3 -03492.1 -07.6464 26244.6
 10 10 2013  21 33  -21.0351 26011.2 -03492.1 -07.6464 26244.5
 10 10 2013  21 34  -21.0349 26011.1 -03492.1 -07.6465 26244.4
 10 10 2013  21 35  -21.0349 26011.0 -03492.2 -07.6467 26244.4
 10 10 2013  21 36  -21.0349 26010.8 -03492.2 -07.6468 26244.2
 10 10 2013  21 37  -21.0347 26010.7 -03492.3 -07.6470 26244.1
 10 10 2013  21 38  -21.0346 26010.6 -03492.3 -07.6470 26244.0
 10 10 2013  21 39  -21.0345 26010.6 -03492.4 -07.6472 26244.0
 10 10 2013  21 40  -21.0344 26010.5 -03492.5 -07.6474 26244.0
 10 10 2013  21 41  -21.0344 26010.5 -03492.6 -07.6476 26244.0
 10 10 2013  21 42  -21.0343 26010.4 -03492.6 -07.6478 26243.9
 10 10 2013  21 43  -21.0342 26010.4 -03492.7 -07.6480 26243.8
 10 10 2013  21 44  -21.0339 26010.3 -03492.7 -07.6480 26243.8
 10 10 2013  21 45  -21.0337 26010.2 -03492.8 -07.6481 26243.7
 10 10 2013  21 46  -21.0336 26010.2 -03492.8 -07.6483 26243.7
 10 10 2013  21 47  -21.0336 26010.2 -03492.9 -07.6485 26243.7
 10 10 2013  21 48  -21.0336 26010.2 -03493.0 -07.6487 26243.7
 10 10 2013  21 49  -21.0336 26010.1 -03493.0 -07.6488 26243.6
 10 10 2013  21 50  -21.0335 26010.1 -03493.1 -07.6489 26243.6
 10 10 2013  21 51  -21.0334 26010.1 -03493.2 -07.6491 26243.6
 10 10 2013  21 52  -21.0333 26010.0 -03493.2 -07.6492 26243.6
 10 10 2013  21 53  -21.0332 26010.0 -03493.2 -07.6493 26243.5
 10 10 2013  21 54  -21.0331 26010.0 -03493.3 -07.6494 26243.5
 10 10 2013  21 55  -21.0328 26009.9 -03493.3 -07.6494 26243.5
 10 10 2013  21 56  -21.0326 26009.9 -03493.3 -07.6495 26243.5
 10 10 2013  21 57  -21.0326 26009.9 -03493.4 -07.6496 26243.5
 10 10 2013  21 58  -21.0326 26010.0 -03493.5 -07.6498 26243.6
 10 10 2013  21 59  -21.0324 26010.1 -03493.6 -07.6499 26243.7
 10 10 2013  22 00  -21.0324 26010.1 -03493.6 -07.6501 26243.7
 10 10 2013  22 01  -21.0324 26010.1 -03493.6 -07.6501 26243.7
 10 10 2013  22 02  -21.0323 26010.0 -03493.6 -07.6501 26243.6
 10 10 2013  22 03  -21.0323 26010.0 -03493.7 -07.6501 26243.6
 10 10 2013  22 04  -21.0321 26010.0 -03493.7 -07.6502 26243.6
 10 10 2013  22 05  -21.0320 26010.1 -03493.7 -07.6502 26243.7
 10 10 2013  22 06  -21.0317 26010.3 -03493.8 -07.6504 26243.9
 10 10 2013  22 07  -21.0313 26010.7 -03494.0 -07.6506 26244.3
 10 10 2013  22 08  -21.0310 26010.9 -03494.1 -07.6509 26244.5
 10 10 2013  22 09  -21.0309 26011.1 -03494.3 -07.6512 26244.7
 10 10 2013  22 10  -21.0307 26011.3 -03494.3 -07.6512 26244.9
 10 10 2013  22 11  -21.0304 26011.4 -03494.4 -07.6513 26245.1
 10 10 2013  22 12  -21.0302 26011.5 -03494.4 -07.6514 26245.1
 10 10 2013  22 13  -21.0297 26011.5 -03494.4 -07.6514 26245.1
 10 10 2013  22 14  -21.0293 26011.4 -03494.4 -07.6513 26245.1
 10 10 2013  22 15  -21.0288 26011.3 -03494.3 -07.6512 26245.0
 10 10 2013  22 16  -21.0283 26011.3 -03494.3 -07.6511 26245.0
 10 10 2013  22 17  -21.0280 26011.3 -03494.3 -07.6511 26244.9
 10 10 2013  22 18  -21.0277 26011.3 -03494.3 -07.6512 26245.0
 10 10 2013  22 19  -21.0275 26011.4 -03494.3 -07.6513 26245.0
 10 10 2013  22 20  -21.0273 26011.3 -03494.4 -07.6513 26245.0
 10 10 2013  22 21  -21.0270 26011.3 -03494.4 -07.6513 26244.9
 10 10 2013  22 22  -21.0268 26011.3 -03494.4 -07.6513 26244.9
 10 10 2013  22 23  -21.0267 26011.3 -03494.4 -07.6514 26245.0
 10 10 2013  22 24  -21.0266 26011.4 -03494.5 -07.6515 26245.1
 10 10 2013  22 25  -21.0266 26011.4 -03494.5 -07.6516 26245.1
 10 10 2013  22 26  -21.0265 26011.5 -03494.5 -07.6516 26245.2
 10 10 2013  22 27  -21.0263 26011.5 -03494.6 -07.6517 26245.2
 10 10 2013  22 28  -21.0263 26011.5 -03494.6 -07.6517 26245.2
 10 10 2013  22 29  -21.0262 26011.6 -03494.6 -07.6517 26245.3
 10 10 2013  22 30  -21.0263 26011.7 -03494.6 -07.6518 26245.4
 10 10 2013  22 31  -21.0262 26011.7 -03494.6 -07.6518 26245.4
 10 10 2013  22 32  -21.0261 26011.6 -03494.6 -07.6517 26245.3
 10 10 2013  22 33  -21.0259 26011.7 -03494.6 -07.6516 26245.4
 10 10 2013  22 34  -21.0258 26011.7 -03494.6 -07.6516 26245.4
 10 10 2013  22 35  -21.0258 26011.7 -03494.6 -07.6517 26245.4
 10 10 2013  22 36  -21.0257 26011.7 -03494.6 -07.6516 26245.4
 10 10 2013  22 37  -21.0256 26011.7 -03494.6 -07.6516 26245.4
 10 10 2013  22 38  -21.0255 26011.7 -03494.6 -07.6516 26245.4
 10 10 2013  22 39  -21.0255 26011.8 -03494.6 -07.6516 26245.5
 10 10 2013  22 40  -21.0255 26011.8 -03494.6 -07.6516 26245.5
 10 10 2013  22 41  -21.0254 26011.7 -03494.6 -07.6516 26245.4
 10 10 2013  22 42  -21.0253 26011.7 -03494.5 -07.6515 26245.3
 10 10 2013  22 43  -21.0253 26011.6 -03494.5 -07.6515 26245.3
 10 10 2013  22 44  -21.0252 26011.5 -03494.4 -07.6514 26245.2
 10 10 2013  22 45  -21.0252 26011.4 -03494.4 -07.6513 26245.1
 10 10 2013  22 46  -21.0252 26011.4 -03494.4 -07.6513 26245.0
 10 10 2013  22 47  -21.0252 26011.3 -03494.4 -07.6513 26244.9
 10 10 2013  22 48  -21.0251 26011.3 -03494.3 -07.6512 26244.9
 10 10 2013  22 49  -21.0250 26011.3 -03494.4 -07.6513 26245.0
 10 10 2013  22 50  -21.0248 26011.3 -03494.3 -07.6512 26245.0
 10 10 2013  22 51  -21.0246 26011.4 -03494.4 -07.6513 26245.0
 10 10 2013  22 52  -21.0245 26011.5 -03494.4 -07.6514 26245.2
 10 10 2013  22 53  -21.0243 26011.6 -03494.5 -07.6516 26245.3
 10 10 2013  22 54  -21.0242 26011.7 -03494.6 -07.6517 26245.4
 10 10 2013  22 55  -21.0240 26011.7 -03494.6 -07.6516 26245.4
 10 10 2013  22 56  -21.0239 26011.7 -03494.5 -07.6516 26245.4
 10 10 2013  22 57  -21.0237 26011.6 -03494.5 -07.6515 26245.3
 10 10 2013  22 58  -21.0236 26011.5 -03494.5 -07.6515 26245.2
 10 10 2013  22 59  -21.0236 26011.5 -03494.4 -07.6514 26245.2
 10 10 2013  23 00  -21.0235 26011.4 -03494.4 -07.6513 26245.1
 10 10 2013  23 01  -21.0235 26011.4 -03494.4 -07.6513 26245.1
 10 10 2013  23 02  -21.0235 26011.4 -03494.4 -07.6514 26245.0
 10 10 2013  23 03  -21.0236 26011.4 -03494.4 -07.6514 26245.1
 10 10 2013  23 04  -21.0237 26011.4 -03494.4 -07.6514 26245.1
 10 10 2013  23 05  -21.0238 26011.4 -03494.4 -07.6514 26245.1
 10 10 2013  23 06  -21.0239 26011.4 -03494.4 -07.6514 26245.1
 10 10 2013  23 07  -21.0238 26011.5 -03494.4 -07.6514 26245.1
 10 10 2013  23 08  -21.0237 26011.6 -03494.5 -07.6515 26245.3
 10 10 2013  23 09  -21.0238 26011.6 -03494.5 -07.6515 26245.3
 10 10 2013  23 10  -21.0237 26011.7 -03494.5 -07.6515 26245.4
 10 10 2013  23 11  -21.0236 26011.9 -03494.6 -07.6516 26245.6
 10 10 2013  23 12  -21.0235 26012.0 -03494.7 -07.6517 26245.7
 10 10 2013  23 13  -21.0233 26012.1 -03494.7 -07.6518 26245.8
 10 10 2013  23 14  -21.0231 26012.2 -03494.7 -07.6518 26245.9
 10 10 2013  23 15  -21.0229 26012.3 -03494.7 -07.6518 26246.0
 10 10 2013  23 16  -21.0229 26012.3 -03494.7 -07.6518 26246.0
 10 10 2013  23 17  -21.0227 26012.2 -03494.7 -07.6517 26245.9
 10 10 2013  23 18  -21.0225 26012.2 -03494.6 -07.6517 26245.9
 10 10 2013  23 19  -21.0223 26012.1 -03494.6 -07.6516 26245.8
 10 10 2013  23 20  -21.0222 26012.0 -03494.6 -07.6515 26245.7
 10 10 2013  23 21  -21.0219 26012.1 -03494.6 -07.6515 26245.7
 10 10 2013  23 22  -21.0218 26012.0 -03494.6 -07.6516 26245.7
 10 10 2013  23 23  -21.0216 26011.9 -03494.5 -07.6515 26245.6
 10 10 2013  23 24  -21.0216 26012.0 -03494.5 -07.6515 26245.7
 10 10 2013  23 25  -21.0214 26011.8 -03494.5 -07.6514 26245.5
 10 10 2013  23 26  -21.0214 26011.8 -03494.5 -07.6514 26245.4
 10 10 2013  23 27  -21.0213 26011.9 -03494.6 -07.6515 26245.6
 10 10 2013  23 28  -21.0214 26011.9 -03494.6 -07.6516 26245.6
 10 10 2013  23 29  -21.0215 26011.9 -03494.6 -07.6516 26245.5
 10 10 2013  23 30  -21.0214 26011.8 -03494.6 -07.6516 26245.5
 10 10 2013  23 31  -21.0215 26011.6 -03494.5 -07.6515 26245.3
 10 10 2013  23 32  -21.0215 26011.3 -03494.4 -07.6513 26245.0
 10 10 2013  23 33  -21.0216 26011.0 -03494.2 -07.6511 26244.7
 10 10 2013  23 34  -21.0217 26010.6 -03494.0 -07.6507 26244.2
 10 10 2013  23 35  -21.0218 26010.1 -03493.7 -07.6503 26243.7
 10 10 2013  23 36  -21.0219 26009.6 -03493.5 -07.6500 26243.1
 10 10 2013  23 37  -21.0220 26009.1 -03493.3 -07.6496 26242.6
 10 10 2013  23 38  -21.0221 26008.7 -03493.1 -07.6494 26242.2
 10 10 2013  23 39  -21.0222 26008.3 -03493.0 -07.6492 26241.8
 10 10 2013  23 40  -21.0223 26008.0 -03492.9 -07.6492 26241.6
 10 10 2013  23 41  -21.0224 26007.9 -03493.0 -07.6492 26241.4
 10 10 2013  23 42  -21.0226 26007.9 -03493.0 -07.6494 26241.4
 10 10 2013  23 43  -21.0229 26007.9 -03493.1 -07.6496 26241.4
 10 10 2013  23 44  -21.0230 26007.9 -03493.2 -07.6497 26241.4
 10 10 2013  23 45  -21.0230 26007.9 -03493.2 -07.6498 26241.5
 10 10 2013  23 46  -21.0230 26008.0 -03493.3 -07.6499 26241.5
 10 10 2013  23 47  -21.0230 26008.0 -03493.3 -07.6500 26241.6
 10 10 2013  23 48  -21.0229 26008.1 -03493.4 -07.6501 26241.7
 10 10 2013  23 49  -21.0228 26008.2 -03493.4 -07.6502 26241.8
 10 10 2013  23 50  -21.0228 26008.2 -03493.5 -07.6503 26241.8
 10 10 2013  23 51  -21.0226 26008.3 -03493.6 -07.6504 26241.9
 10 10 2013  23 52  -21.0225 26008.4 -03493.6 -07.6505 26241.9
 10 10 2013  23 53  -21.0224 26008.5 -03493.6 -07.6505 26242.1
 10 10 2013  23 54  -21.0223 26008.5 -03493.7 -07.6507 26242.1
 10 10 2013  23 55  -21.0222 26008.5 -03493.7 -07.6507 26242.1
 10 10 2013  23 56  -21.0221 26008.6 -03493.8 -07.6508 26242.2
 10 10 2013  23 57  -21.0221 26008.7 -03493.8 -07.6509 26242.3
